
time,gFx,gFy,gFz,ax,ay,az,wx,wy,wz,
0.039880,0.3019,0.7033,0.7793,0.0000,0.0000,0.0000,0.0000,0.0000,0.0000,
0.040030,0.2978,0.7016,0.7893,0.0000,0.0000,0.0000,0.0000,0.0000,0.0000,
0.040131,0.2953,0.6979,0.8020,0.0000,0.0000,0.0000,0.0000,0.0000,0.0000,
0.040231,0.2929,0.6957,0.8135,0.0000,0.0000,0.0000,0.0000,0.0000,0.0000,
0.040311,0.2902,0.6936,0.8218,0.0000,0.0000,0.0000,0.0000,0.0000,0.0000,
0.040387,0.2885,0.6921,0.8267,0.0000,0.0000,0.0000,0.0000,0.0000,0.0000,
0.040463,0.2866,0.6884,0.8316,0.0000,0.0000,0.0000,0.0000,0.0000,0.0000,
0.040541,0.2861,0.6877,0.8365,0.0000,0.0000,0.0000,0.0000,0.0000,0.0000,
0.040618,0.2851,0.6823,0.8421,0.0000,0.0000,0.0000,0.0000,0.0000,0.0000,
0.040694,0.2792,0.6777,0.8460,0.0000,0.0000,0.0000,0.0000,0.0000,0.0000,
0.040776,0.2765,0.6762,0.8443,0.0000,0.0000,0.0000,0.0000,0.0000,0.0000,
0.040854,0.2707,0.6743,0.8394,0.0000,0.0000,0.0000,0.0000,0.0000,0.0000,
0.040920,0.2646,0.6760,0.8316,0.0000,0.0000,0.0000,0.0000,0.0000,0.0000,
0.047105,0.2636,0.6782,0.8238,0.0000,0.0000,0.0000,0.0000,0.0000,0.0000,
0.047460,0.2609,0.6809,0.8142,0.0000,0.0000,0.0000,0.0000,0.0000,0.0000,
0.047714,0.2599,0.6811,0.8069,0.0000,0.0000,0.0000,0.0000,0.0000,0.0000,
0.047970,0.2597,0.6796,0.8042,0.0000,0.0000,0.0000,0.0000,0.0000,0.0000,
0.050946,0.2592,0.6765,0.8042,0.0000,0.0000,0.0000,0.0000,0.0000,0.0000,
0.052416,0.2563,0.6694,0.8037,0.0000,0.0000,0.0000,0.0000,0.0000,0.0000,
0.055152,0.2543,0.6660,0.8045,0.0000,0.0000,0.0000,0.0000,0.0000,0.0000,
0.058216,0.2536,0.6630,0.8084,0.0000,0.0000,0.0000,0.0000,0.0000,0.0000,
0.060372,0.2504,0.6623,0.8155,0.0000,0.0000,0.0000,0.0000,0.0000,0.0000,
0.062970,0.2489,0.6633,0.8220,0.0000,0.0000,0.0000,0.0000,0.0000,0.0000,
0.064755,0.2460,0.6664,0.8245,0.0000,0.0000,0.0000,0.0000,0.0000,0.0000,
0.067291,0.2416,0.6733,0.8255,0.0000,0.0000,0.0000,0.0000,0.0000,0.0000,
0.070747,0.2394,0.6772,0.8235,0.0000,0.0000,0.0000,0.0000,0.0000,0.0000,
0.072466,0.2335,0.6813,0.8198,0.0000,0.0000,0.0000,0.0000,0.0000,0.0000,
0.074532,0.2299,0.6865,0.8120,0.0000,0.0000,0.0000,0.0000,0.0000,0.0000,
0.078319,0.2279,0.6879,0.8057,0.0000,0.0000,0.0000,0.0000,0.0000,0.0000,
0.079353,0.2255,0.6933,0.7976,0.0000,0.0000,0.0000,0.0000,0.0000,0.0000,
0.081864,0.2260,0.6970,0.7957,0.0000,0.0000,0.0000,0.0000,0.0000,0.0000,
0.084296,0.2282,0.7006,0.7976,0.0000,0.0000,0.0000,0.0000,0.0000,0.0000,
0.086584,0.2338,0.7028,0.8015,0.0000,0.0000,0.0000,0.0000,0.0000,0.0000,
0.089328,0.2384,0.7045,0.8059,0.0000,0.0000,0.0000,0.0000,0.0000,0.0000,
0.091716,0.2411,0.7014,0.8079,0.0000,0.0000,0.0000,0.0000,0.0000,0.0000,
0.093965,0.2426,0.6989,0.8050,0.0000,0.0000,0.0000,0.0000,0.0000,0.0000,
0.097867,0.2443,0.6970,0.7984,0.0000,0.0000,0.0000,0.0000,0.0000,0.0000,
0.099310,0.2455,0.6936,0.7893,0.0000,0.0000,0.0000,0.0000,0.0000,0.0000,
0.101498,0.2458,0.6953,0.7808,0.0000,0.0000,0.0000,0.0000,0.0000,0.0000,
0.101923,0.2458,0.6953,0.7808,0.0000,0.0000,0.0000,0.3773,-0.1284,-0.3547,
0.103831,0.2443,0.6979,0.7700,0.0000,0.0000,0.0000,0.3773,-0.1284,-0.3547,
0.106393,0.2396,0.6899,0.7461,0.0000,0.0000,0.0000,0.3773,-0.1284,-0.3547,
0.109131,0.2370,0.7053,0.7224,0.0000,0.0000,0.0000,0.3773,-0.1284,-0.3547,
0.111046,0.2448,0.7495,0.7148,0.0000,0.0000,0.0000,0.3773,-0.1284,-0.3547,
0.113568,0.2531,0.7847,0.7011,0.0000,0.0000,0.0000,0.3773,-0.1284,-0.3547,
0.116887,0.2499,0.7898,0.6667,0.0000,0.0000,0.0000,0.3773,-0.1284,-0.3547,
0.120031,0.2423,0.7796,0.6288,0.0000,0.0000,0.0000,0.3773,-0.1284,-0.3547,
0.120842,0.2372,0.7791,0.6010,0.0000,0.0000,0.0000,0.3773,-0.1284,-0.3547,
0.123466,0.2323,0.7886,0.5770,0.0000,0.0000,0.0000,0.3773,-0.1284,-0.3547,
0.125720,0.2265,0.7905,0.5502,0.0000,0.0000,0.0000,0.3773,-0.1284,-0.3547,
0.129257,0.2111,0.7822,0.5152,0.0000,0.0000,0.0000,0.3773,-0.1284,-0.3547,
0.131897,0.1944,0.7698,0.4813,0.0000,0.0000,0.0000,0.3773,-0.1284,-0.3547,
0.133120,0.1769,0.7517,0.4454,0.0000,0.0000,0.0000,0.3773,-0.1284,-0.3547,
0.135792,0.1556,0.7363,0.4126,0.0000,0.0000,0.0000,0.3773,-0.1284,-0.3547,
0.138229,0.1407,0.7285,0.3879,0.0000,0.0000,0.0000,0.3773,-0.1284,-0.3547,
0.140820,0.1322,0.7314,0.3713,0.0000,0.0000,0.0000,0.3773,-0.1284,-0.3547,
0.143078,0.1278,0.7361,0.3630,0.0000,0.0000,0.0000,0.3773,-0.1284,-0.3547,
0.145169,0.1153,0.7336,0.3606,0.0000,0.0000,0.0000,0.3773,-0.1284,-0.3547,
0.147602,0.0953,0.7436,0.3686,0.0000,0.0000,0.0000,0.3773,-0.1284,-0.3547,
0.150767,0.0738,0.7727,0.3757,0.0000,0.0000,0.0000,0.3773,-0.1284,-0.3547,
0.153180,0.0552,0.8167,0.3799,0.0000,0.0000,0.0000,0.3773,-0.1284,-0.3547,
0.155695,0.0396,0.8548,0.3816,0.0000,0.0000,0.0000,0.3773,-0.1284,-0.3547,
0.158407,0.0298,0.8880,0.3919,0.0000,0.0000,0.0000,0.3773,-0.1284,-0.3547,
0.160287,0.0286,0.9186,0.4148,0.0000,0.0000,0.0000,0.3773,-0.1284,-0.3547,
0.162297,0.0332,0.9420,0.4493,0.0000,0.0000,0.0000,0.3773,-0.1284,-0.3547,
0.165911,0.0491,0.9589,0.4859,0.0000,0.0000,0.0000,0.3773,-0.1284,-0.3547,
0.167348,0.0725,0.9679,0.5230,0.0000,0.0000,0.0000,0.3773,-0.1284,-0.3547,
0.169897,0.0725,0.9679,0.5230,0.0000,0.0000,0.0000,0.7072,-0.4287,0.1559,
0.170447,0.0955,0.9657,0.5475,0.0000,0.0000,0.0000,0.7072,-0.4287,0.1559,
0.171981,0.1292,0.9579,0.5636,0.0000,0.0000,0.0000,0.7072,-0.4287,0.1559,
0.175188,0.1651,0.9405,0.5687,0.0000,0.0000,0.0000,0.7072,-0.4287,0.1559,
0.178305,0.2045,0.9193,0.5721,0.0000,0.0000,0.0000,0.7072,-0.4287,0.1559,
0.178691,0.2045,0.9193,0.5721,0.0000,0.0000,0.0000,0.7072,-0.4287,0.1559,
0.179254,0.2423,0.8973,0.5756,0.0000,0.0000,0.0000,0.7072,-0.4287,0.1559,
0.181964,0.2861,0.8802,0.5892,0.0000,0.0000,0.0000,0.7072,-0.4287,0.1559,
0.184563,0.3186,0.8572,0.6029,0.0000,0.0000,0.0000,0.7072,-0.4287,0.1559,
0.186631,0.3513,0.8362,0.6178,0.0000,0.0000,0.0000,0.7072,-0.4287,0.1559,
0.189198,0.3850,0.8194,0.6286,0.0000,0.0000,0.0000,0.7072,-0.4287,0.1559,
0.191840,0.4180,0.8086,0.6405,0.0000,0.0000,0.0000,0.7072,-0.4287,0.1559,
0.193842,0.4444,0.7984,0.6515,0.0000,0.0000,0.0000,0.7072,-0.4287,0.1559,
0.197472,0.4639,0.7920,0.6542,0.0000,0.0000,0.0000,0.7072,-0.4287,0.1559,
0.200113,0.4798,0.7859,0.6564,0.0000,0.0000,0.0000,0.7072,-0.4287,0.1559,
0.201800,0.4834,0.7852,0.6545,0.0000,0.0000,0.0000,0.7072,-0.4287,0.1559,
0.203676,0.4820,0.7886,0.6569,0.0000,0.0000,0.0000,0.7072,-0.4287,0.1559,
0.206014,0.4756,0.7942,0.6645,0.0000,0.0000,0.0000,0.7072,-0.4287,0.1559,
0.208576,0.4646,0.8032,0.6779,0.0000,0.0000,0.0000,0.7072,-0.4287,0.1559,
0.211275,0.4517,0.8120,0.6972,0.0000,0.0000,0.0000,0.7072,-0.4287,0.1559,
0.213660,0.4380,0.8211,0.7153,0.0000,0.0000,0.0000,0.7072,-0.4287,0.1559,
0.216369,0.4243,0.8306,0.7283,0.0000,0.0000,0.0000,0.7072,-0.4287,0.1559,
0.218376,0.4129,0.8406,0.7388,0.0000,0.0000,0.0000,0.7072,-0.4287,0.1559,
0.220871,0.4085,0.8482,0.7446,0.0000,0.0000,0.0000,0.7072,-0.4287,0.1559,
0.223976,0.4075,0.8570,0.7468,0.0000,0.0000,0.0000,0.7072,-0.4287,0.1559,
0.226077,0.4067,0.8626,0.7429,0.0000,0.0000,0.0000,0.7072,-0.4287,0.1559,
0.228139,0.4063,0.8655,0.7351,0.0000,0.0000,0.0000,0.7072,-0.4287,0.1559,
0.230347,0.4046,0.8636,0.7258,0.0000,0.0000,0.0000,0.7072,-0.4287,0.1559,
0.233333,0.4016,0.8594,0.7160,0.0000,0.0000,0.0000,0.7072,-0.4287,0.1559,
0.235395,0.4002,0.8526,0.7043,0.0000,0.0000,0.0000,0.7072,-0.4287,0.1559,
0.238341,0.4002,0.8526,0.7043,0.0000,0.0000,0.0000,-0.1100,-1.1686,0.0832,
0.238784,0.4006,0.8475,0.6896,0.0000,0.0000,0.0000,-0.1100,-1.1686,0.0832,
0.240563,0.4011,0.8416,0.6755,0.0000,0.0000,0.0000,-0.1100,-1.1686,0.0832,
0.242649,0.4014,0.8323,0.6501,0.0000,0.0000,0.0000,-0.1100,-1.1686,0.0832,
0.245177,0.4006,0.8228,0.6222,0.0000,0.0000,0.0000,-0.1100,-1.1686,0.0832,
0.245565,0.4006,0.8228,0.6222,-0.6602,0.5864,-1.3683,-0.1100,-1.1686,0.0832,
0.247748,0.4028,0.8113,0.5939,-0.6602,0.5864,-1.3683,-0.1100,-1.1686,0.0832,
0.250902,0.4063,0.8023,0.5739,-0.6602,0.5864,-1.3683,-0.1100,-1.1686,0.0832,
0.252348,0.4131,0.7920,0.5634,-0.6602,0.5864,-1.3683,-0.1100,-1.1686,0.0832,
0.254757,0.4212,0.7827,0.5631,-0.6602,0.5864,-1.3683,-0.1100,-1.1686,0.0832,
0.258639,0.4307,0.7757,0.5660,-0.6602,0.5864,-1.3683,-0.1100,-1.1686,0.0832,
0.260452,0.4424,0.7671,0.5692,-0.6602,0.5864,-1.3683,-0.1100,-1.1686,0.0832,
0.262148,0.4498,0.7590,0.5780,-0.6602,0.5864,-1.3683,-0.1100,-1.1686,0.0832,
0.265360,0.4549,0.7556,0.5929,-0.6602,0.5864,-1.3683,-0.1100,-1.1686,0.0832,
0.267339,0.4561,0.7558,0.6139,-0.6602,0.5864,-1.3683,-0.1100,-1.1686,0.0832,
0.269724,0.4595,0.7593,0.6330,-0.6602,0.5864,-1.3683,-0.1100,-1.1686,0.0832,
0.272675,0.4637,0.7715,0.6505,-0.6602,0.5864,-1.3683,-0.1100,-1.1686,0.0832,
0.274384,0.4708,0.7954,0.6574,-0.6602,0.5864,-1.3683,-0.1100,-1.1686,0.0832,
0.278034,0.4832,0.8213,0.6601,-0.6602,0.5864,-1.3683,-0.1100,-1.1686,0.0832,
0.279104,0.4959,0.8484,0.6628,-0.6602,0.5864,-1.3683,-0.1100,-1.1686,0.0832,
0.282431,0.5079,0.8709,0.6755,-0.6602,0.5864,-1.3683,-0.1100,-1.1686,0.0832,
0.284722,0.5079,0.8878,0.7058,-0.6602,0.5864,-1.3683,-0.1100,-1.1686,0.0832,
0.286604,0.5045,0.8939,0.7441,-0.6602,0.5864,-1.3683,-0.1100,-1.1686,0.0832,
0.288873,0.4989,0.8917,0.7810,-0.6602,0.5864,-1.3683,-0.1100,-1.1686,0.0832,
0.292193,0.4920,0.8893,0.8076,-0.6602,0.5864,-1.3683,-0.1100,-1.1686,0.0832,
0.293924,0.4871,0.8875,0.8155,-0.6602,0.5864,-1.3683,-0.1100,-1.1686,0.0832,
0.297615,0.4893,0.8883,0.8108,-0.6602,0.5864,-1.3683,-0.1100,-1.1686,0.0832,
0.298949,0.4972,0.8922,0.7971,-0.6602,0.5864,-1.3683,-0.1100,-1.1686,0.0832,
0.301530,0.5091,0.8934,0.7732,-0.6602,0.5864,-1.3683,-0.1100,-1.1686,0.0832,
0.303633,0.5247,0.8927,0.7502,-0.6602,0.5864,-1.3683,-0.1100,-1.1686,0.0832,
0.306016,0.5247,0.8927,0.7502,-0.6602,0.5864,-1.3683,0.6152,-1.6847,-0.1070,
0.306342,0.5458,0.8885,0.7358,-0.6602,0.5864,-1.3683,0.6152,-1.6847,-0.1070,
0.308862,0.5724,0.8795,0.7287,-0.6602,0.5864,-1.3683,0.6152,-1.6847,-0.1070,
0.312318,0.5983,0.8672,0.7283,-0.6602,0.5864,-1.3683,0.6152,-1.6847,-0.1070,
0.325239,0.6203,0.8502,0.7224,-0.6602,0.5864,-1.3683,0.6152,-1.6847,-0.1070,
0.325712,0.6379,0.8304,0.7273,-0.6602,0.5864,-1.3683,0.6152,-1.6847,-0.1070,
0.326139,0.6430,0.8113,0.7402,-0.6602,0.5864,-1.3683,0.6152,-1.6847,-0.1070,
0.326482,0.6430,0.8113,0.7402,0.9241,0.4299,0.4400,0.6152,-1.6847,-0.1070,
0.326861,0.6366,0.8018,0.7527,0.9241,0.4299,0.4400,0.6152,-1.6847,-0.1070,
0.327244,0.6237,0.8057,0.7634,0.9241,0.4299,0.4400,0.6152,-1.6847,-0.1070,
0.327626,0.6071,0.8262,0.7705,0.9241,0.4299,0.4400,0.6152,-1.6847,-0.1070,
0.329129,0.5878,0.8531,0.7720,0.9241,0.4299,0.4400,0.6152,-1.6847,-0.1070,
0.330341,0.5753,0.8851,0.7705,0.9241,0.4299,0.4400,0.6152,-1.6847,-0.1070,
0.333043,0.5646,0.9154,0.7612,0.9241,0.4299,0.4400,0.6152,-1.6847,-0.1070,
0.335592,0.5538,0.9398,0.7358,0.9241,0.4299,0.4400,0.6152,-1.6847,-0.1070,
0.338452,0.5550,0.9574,0.7072,0.9241,0.4299,0.4400,0.6152,-1.6847,-0.1070,
0.340580,0.5592,0.9620,0.6796,0.9241,0.4299,0.4400,0.6152,-1.6847,-0.1070,
0.343548,0.5714,0.9557,0.6564,0.9241,0.4299,0.4400,0.6152,-1.6847,-0.1070,
0.345107,0.5841,0.9320,0.6408,0.9241,0.4299,0.4400,0.6152,-1.6847,-0.1070,
0.348263,0.5997,0.8990,0.6293,0.9241,0.4299,0.4400,0.6152,-1.6847,-0.1070,
0.350922,0.6159,0.8582,0.6210,0.9241,0.4299,0.4400,0.6152,-1.6847,-0.1070,
0.352440,0.6352,0.8203,0.6186,0.9241,0.4299,0.4400,0.6152,-1.6847,-0.1070,
0.354722,0.6540,0.7879,0.6112,0.9241,0.4299,0.4400,0.6152,-1.6847,-0.1070,
0.358417,0.6733,0.7588,0.6027,0.9241,0.4299,0.4400,0.6152,-1.6847,-0.1070,
0.360660,0.6906,0.7407,0.5929,0.9241,0.4299,0.4400,0.6152,-1.6847,-0.1070,
0.362204,0.7031,0.7268,0.5797,0.9241,0.4299,0.4400,0.6152,-1.6847,-0.1070,
0.365259,0.7055,0.7212,0.5675,0.9241,0.4299,0.4400,0.6152,-1.6847,-0.1070,
0.366894,0.7021,0.7214,0.5619,0.9241,0.4299,0.4400,0.6152,-1.6847,-0.1070,
0.369702,0.6977,0.7229,0.5631,0.9241,0.4299,0.4400,0.6152,-1.6847,-0.1070,
0.371961,0.6899,0.7285,0.5690,0.9241,0.4299,0.4400,0.6152,-1.6847,-0.1070,
0.374449,0.6899,0.7285,0.5690,0.9241,0.4299,0.4400,0.3434,-3.2498,-0.0764,
0.374902,0.6860,0.7329,0.5763,0.9241,0.4299,0.4400,0.3434,-3.2498,-0.0764,
0.378036,0.6855,0.7331,0.5807,0.9241,0.4299,0.4400,0.3434,-3.2498,-0.0764,
0.379208,0.6862,0.7322,0.5829,0.9241,0.4299,0.4400,0.3434,-3.2498,-0.0764,
0.381952,0.6896,0.7300,0.5880,0.9241,0.4299,0.4400,0.3434,-3.2498,-0.0764,
0.382325,0.6896,0.7300,0.5880,0.7662,0.1453,0.9206,0.3434,-3.2498,-0.0764,
0.384198,0.6870,0.7287,0.5883,0.7662,0.1453,0.9206,0.3434,-3.2498,-0.0764,
0.386403,0.6833,0.7312,0.5846,0.7662,0.1453,0.9206,0.3434,-3.2498,-0.0764,
0.389826,0.6752,0.7312,0.5743,0.7662,0.1453,0.9206,0.3434,-3.2498,-0.0764,
0.392384,0.6628,0.7329,0.5592,0.7662,0.1453,0.9206,0.3434,-3.2498,-0.0764,
0.394043,0.6459,0.7322,0.5428,0.7662,0.1453,0.9206,0.3434,-3.2498,-0.0764,
0.396344,0.6281,0.7305,0.5294,0.7662,0.1453,0.9206,0.3434,-3.2498,-0.0764,
0.399820,0.6081,0.7268,0.5177,0.7662,0.1453,0.9206,0.3434,-3.2498,-0.0764,
0.402034,0.5890,0.7229,0.5091,0.7662,0.1453,0.9206,0.3434,-3.2498,-0.0764,
0.403845,0.5734,0.7204,0.5020,0.7662,0.1453,0.9206,0.3434,-3.2498,-0.0764,
0.406347,0.5575,0.7185,0.4923,0.7662,0.1453,0.9206,0.3434,-3.2498,-0.0764,
0.409181,0.5409,0.7170,0.4817,0.7662,0.1453,0.9206,0.3434,-3.2498,-0.0764,
0.411389,0.5274,0.7173,0.4668,0.7662,0.1453,0.9206,0.3434,-3.2498,-0.0764,
0.413244,0.5103,0.7168,0.4454,0.7662,0.1453,0.9206,0.3434,-3.2498,-0.0764,
0.415892,0.4976,0.7192,0.4204,0.7662,0.1453,0.9206,0.3434,-3.2498,-0.0764,
0.419176,0.4856,0.7214,0.3970,0.7662,0.1453,0.9206,0.3434,-3.2498,-0.0764,
0.420743,0.4747,0.7212,0.3779,0.7662,0.1453,0.9206,0.3434,-3.2498,-0.0764,
0.423076,0.4661,0.7209,0.3637,0.7662,0.1453,0.9206,0.3434,-3.2498,-0.0764,
0.426352,0.4593,0.7195,0.3520,0.7662,0.1453,0.9206,0.3434,-3.2498,-0.0764,
0.428012,0.4549,0.7178,0.3393,0.7662,0.1453,0.9206,0.3434,-3.2498,-0.0764,
0.430352,0.4510,0.7168,0.3279,0.7662,0.1453,0.9206,0.3434,-3.2498,-0.0764,
0.432700,0.4495,0.7163,0.3152,0.7662,0.1453,0.9206,0.3434,-3.2498,-0.0764,
0.435519,0.4490,0.7136,0.3027,0.7662,0.1453,0.9206,0.3434,-3.2498,-0.0764,
0.438520,0.4517,0.7111,0.2924,0.7662,0.1453,0.9206,0.3434,-3.2498,-0.0764,
0.440520,0.4544,0.7126,0.2822,0.7662,0.1453,0.9206,0.3434,-3.2498,-0.0764,
0.442849,0.4620,0.7128,0.2722,0.7662,0.1453,0.9206,0.3434,-3.2498,-0.0764,
0.443231,0.4620,0.7128,0.2722,0.7662,0.1453,0.9206,0.2046,-1.9574,-0.3392,
0.444935,0.4734,0.7136,0.2621,0.7662,0.1453,0.9206,0.2046,-1.9574,-0.3392,
0.447262,0.4932,0.7141,0.2541,0.7662,0.1453,0.9206,0.2046,-1.9574,-0.3392,
0.449914,0.5191,0.7136,0.2462,0.7662,0.1453,0.9206,0.2046,-1.9574,-0.3392,
0.450231,0.5191,0.7136,0.2462,0.9078,-0.1207,1.4706,0.2046,-1.9574,-0.3392,
0.452342,0.5548,0.7133,0.2377,0.9078,-0.1207,1.4706,0.2046,-1.9574,-0.3392,
0.454985,0.5919,0.7160,0.2306,0.9078,-0.1207,1.4706,0.2046,-1.9574,-0.3392,
0.459042,0.6234,0.7195,0.2287,0.9078,-0.1207,1.4706,0.2046,-1.9574,-0.3392,
0.460057,0.6471,0.7202,0.2294,0.9078,-0.1207,1.4706,0.2046,-1.9574,-0.3392,
0.462351,0.6603,0.7195,0.2279,0.9078,-0.1207,1.4706,0.2046,-1.9574,-0.3392,
0.464695,0.6669,0.7185,0.2230,0.9078,-0.1207,1.4706,0.2046,-1.9574,-0.3392,
0.467629,0.6682,0.7155,0.2179,0.9078,-0.1207,1.4706,0.2046,-1.9574,-0.3392,
0.470242,0.6652,0.7116,0.2145,0.9078,-0.1207,1.4706,0.2046,-1.9574,-0.3392,
0.471199,0.6579,0.7080,0.2167,0.9078,-0.1207,1.4706,0.2046,-1.9574,-0.3392,
0.473677,0.6459,0.7043,0.2255,0.9078,-0.1207,1.4706,0.2046,-1.9574,-0.3392,
0.477015,0.6313,0.6970,0.2404,0.9078,-0.1207,1.4706,0.2046,-1.9574,-0.3392,
0.479894,0.6122,0.6882,0.2609,0.9078,-0.1207,1.4706,0.2046,-1.9574,-0.3392,
0.481571,0.5912,0.6787,0.2868,0.9078,-0.1207,1.4706,0.2046,-1.9574,-0.3392,
0.483712,0.5712,0.6691,0.3166,0.9078,-0.1207,1.4706,0.2046,-1.9574,-0.3392,
0.485982,0.5533,0.6586,0.3479,0.9078,-0.1207,1.4706,0.2046,-1.9574,-0.3392,
0.488355,0.5391,0.6545,0.3833,0.9078,-0.1207,1.4706,0.2046,-1.9574,-0.3392,
0.490956,0.5308,0.6525,0.4180,0.9078,-0.1207,1.4706,0.2046,-1.9574,-0.3392,
0.493464,0.5267,0.6532,0.4502,0.9078,-0.1207,1.4706,0.2046,-1.9574,-0.3392,
0.496407,0.5218,0.6518,0.4742,0.9078,-0.1207,1.4706,0.2046,-1.9574,-0.3392,
0.498479,0.5167,0.6520,0.4891,0.9078,-0.1207,1.4706,0.2046,-1.9574,-0.3392,
0.501267,0.5094,0.6547,0.5023,0.9078,-0.1207,1.4706,0.2046,-1.9574,-0.3392,
0.503925,0.4967,0.6554,0.5118,0.9078,-0.1207,1.4706,0.2046,-1.9574,-0.3392,
0.505791,0.4825,0.6542,0.5201,0.9078,-0.1207,1.4706,0.2046,-1.9574,-0.3392,
0.509826,0.4651,0.6545,0.5299,0.9078,-0.1207,1.4706,0.2046,-1.9574,-0.3392,
0.510382,0.4651,0.6545,0.5299,0.9078,-0.1207,1.4706,-0.7494,-0.7077,-0.2634,
0.510909,0.4485,0.6540,0.5404,0.9078,-0.1207,1.4706,-0.7494,-0.7077,-0.2634,
0.512933,0.4317,0.6530,0.5494,0.9078,-0.1207,1.4706,-0.7494,-0.7077,-0.2634,
0.515071,0.4160,0.6508,0.5609,0.9078,-0.1207,1.4706,-0.7494,-0.7077,-0.2634,
0.518097,0.4016,0.6481,0.5729,0.9078,-0.1207,1.4706,-0.7494,-0.7077,-0.2634,
0.518425,0.4016,0.6481,0.5729,-0.3913,-1.0365,-0.1079,-0.7494,-0.7077,-0.2634,
0.520611,0.3926,0.6418,0.5841,-0.3913,-1.0365,-0.1079,-0.7494,-0.7077,-0.2634,
0.522824,0.3860,0.6349,0.5922,-0.3913,-1.0365,-0.1079,-0.7494,-0.7077,-0.2634,
0.524867,0.3816,0.6283,0.5988,-0.3913,-1.0365,-0.1079,-0.7494,-0.7077,-0.2634,
0.527260,0.3779,0.6161,0.6000,-0.3913,-1.0365,-0.1079,-0.7494,-0.7077,-0.2634,
0.530090,0.3711,0.6056,0.5988,-0.3913,-1.0365,-0.1079,-0.7494,-0.7077,-0.2634,
0.532164,0.3637,0.5936,0.5968,-0.3913,-1.0365,-0.1079,-0.7494,-0.7077,-0.2634,
0.534578,0.3542,0.5836,0.5953,-0.3913,-1.0365,-0.1079,-0.7494,-0.7077,-0.2634,
0.538922,0.3408,0.5729,0.5936,-0.3913,-1.0365,-0.1079,-0.7494,-0.7077,-0.2634,
0.540150,0.3269,0.5651,0.5887,-0.3913,-1.0365,-0.1079,-0.7494,-0.7077,-0.2634,
0.542973,0.3102,0.5582,0.5846,-0.3913,-1.0365,-0.1079,-0.7494,-0.7077,-0.2634,
0.544480,0.2939,0.5548,0.5804,-0.3913,-1.0365,-0.1079,-0.7494,-0.7077,-0.2634,
0.547009,0.2797,0.5529,0.5795,-0.3913,-1.0365,-0.1079,-0.7494,-0.7077,-0.2634,
0.549418,0.2685,0.5526,0.5770,-0.3913,-1.0365,-0.1079,-0.7494,-0.7077,-0.2634,
0.551944,0.2621,0.5568,0.5753,-0.3913,-1.0365,-0.1079,-0.7494,-0.7077,-0.2634,
0.555896,0.2577,0.5641,0.5709,-0.3913,-1.0365,-0.1079,-0.7494,-0.7077,-0.2634,
0.557804,0.2575,0.5726,0.5651,-0.3913,-1.0365,-0.1079,-0.7494,-0.7077,-0.2634,
0.558925,0.2604,0.5790,0.5572,-0.3913,-1.0365,-0.1079,-0.7494,-0.7077,-0.2634,
0.561572,0.2673,0.5839,0.5477,-0.3913,-1.0365,-0.1079,-0.7494,-0.7077,-0.2634,
0.564012,0.2734,0.5922,0.5394,-0.3913,-1.0365,-0.1079,-0.7494,-0.7077,-0.2634,
0.566420,0.2844,0.6012,0.5318,-0.3913,-1.0365,-0.1079,-0.7494,-0.7077,-0.2634,
0.568646,0.2978,0.6095,0.5233,-0.3913,-1.0365,-0.1079,-0.7494,-0.7077,-0.2634,
0.572164,0.3127,0.6191,0.5157,-0.3913,-1.0365,-0.1079,-0.7494,-0.7077,-0.2634,
0.573805,0.3291,0.6242,0.5079,-0.3913,-1.0365,-0.1079,-0.7494,-0.7077,-0.2634,
0.576006,0.3437,0.6269,0.4984,-0.3913,-1.0365,-0.1079,-0.7494,-0.7077,-0.2634,
0.578418,0.3437,0.6269,0.4984,-0.3913,-1.0365,-0.1079,-0.0086,0.1171,-0.3314,
0.578741,0.3601,0.6303,0.4866,-0.3913,-1.0365,-0.1079,-0.0086,0.1171,-0.3314,
0.581068,0.3762,0.6335,0.4742,-0.3913,-1.0365,-0.1079,-0.0086,0.1171,-0.3314,
0.583513,0.3872,0.6383,0.4615,-0.3913,-1.0365,-0.1079,-0.0086,0.1171,-0.3314,
0.585964,0.3975,0.6444,0.4485,-0.3913,-1.0365,-0.1079,-0.0086,0.1171,-0.3314,
0.586321,0.3975,0.6444,0.4485,-0.1038,-1.1304,-0.7289,-0.0086,0.1171,-0.3314,
0.589045,0.4050,0.6491,0.4375,-0.1038,-1.1304,-0.7289,-0.0086,0.1171,-0.3314,
0.591053,0.4077,0.6557,0.4275,-0.1038,-1.1304,-0.7289,-0.0086,0.1171,-0.3314,
0.593162,0.4055,0.6599,0.4175,-0.1038,-1.1304,-0.7289,-0.0086,0.1171,-0.3314,
0.595564,0.4021,0.6655,0.4070,-0.1038,-1.1304,-0.7289,-0.0086,0.1171,-0.3314,
0.598138,0.3953,0.6730,0.3980,-0.1038,-1.1304,-0.7289,-0.0086,0.1171,-0.3314,
0.600581,0.3879,0.6818,0.3911,-0.1038,-1.1304,-0.7289,-0.0086,0.1171,-0.3314,
0.602985,0.3792,0.6896,0.3838,-0.1038,-1.1304,-0.7289,-0.0086,0.1171,-0.3314,
0.605875,0.3708,0.6965,0.3760,-0.1038,-1.1304,-0.7289,-0.0086,0.1171,-0.3314,
0.608410,0.3659,0.7062,0.3691,-0.1038,-1.1304,-0.7289,-0.0086,0.1171,-0.3314,
0.610205,0.3613,0.7124,0.3664,-0.1038,-1.1304,-0.7289,-0.0086,0.1171,-0.3314,
0.612607,0.3598,0.7160,0.3642,-0.1038,-1.1304,-0.7289,-0.0086,0.1171,-0.3314,
0.615261,0.3615,0.7217,0.3642,-0.1038,-1.1304,-0.7289,-0.0086,0.1171,-0.3314,
0.617613,0.3650,0.7256,0.3669,-0.1038,-1.1304,-0.7289,-0.0086,0.1171,-0.3314,
0.620541,0.3684,0.7309,0.3708,-0.1038,-1.1304,-0.7289,-0.0086,0.1171,-0.3314,
0.622849,0.3738,0.7373,0.3723,-0.1038,-1.1304,-0.7289,-0.0086,0.1171,-0.3314,
0.625181,0.3777,0.7446,0.3713,-0.1038,-1.1304,-0.7289,-0.0086,0.1171,-0.3314,
0.627297,0.3831,0.7519,0.3689,-0.1038,-1.1304,-0.7289,-0.0086,0.1171,-0.3314,
0.629789,0.3887,0.7627,0.3659,-0.1038,-1.1304,-0.7289,-0.0086,0.1171,-0.3314,
0.632147,0.3950,0.7724,0.3620,-0.1038,-1.1304,-0.7289,-0.0086,0.1171,-0.3314,
0.634544,0.4004,0.7827,0.3589,-0.1038,-1.1304,-0.7289,-0.0086,0.1171,-0.3314,
0.637359,0.4085,0.7901,0.3567,-0.1038,-1.1304,-0.7289,-0.0086,0.1171,-0.3314,
0.640018,0.4194,0.7981,0.3547,-0.1038,-1.1304,-0.7289,-0.0086,0.1171,-0.3314,
0.642159,0.4336,0.8057,0.3520,-0.1038,-1.1304,-0.7289,-0.0086,0.1171,-0.3314,
0.644293,0.4507,0.8118,0.3525,-0.1038,-1.1304,-0.7289,-0.0086,0.1171,-0.3314,
0.646825,0.4507,0.8118,0.3525,-0.1038,-1.1304,-0.7289,0.4486,-1.0906,-0.2182,
0.647268,0.4659,0.8181,0.3540,-0.1038,-1.1304,-0.7289,0.4486,-1.0906,-0.2182,
0.649277,0.4793,0.8208,0.3584,-0.1038,-1.1304,-0.7289,0.4486,-1.0906,-0.2182,
0.651928,0.4942,0.8230,0.3620,-0.1038,-1.1304,-0.7289,0.4486,-1.0906,-0.2182,
0.654217,0.5084,0.8206,0.3677,-0.1038,-1.1304,-0.7289,0.4486,-1.0906,-0.2182,
0.655047,0.5084,0.8206,0.3677,-1.9508,-1.8453,1.0880,0.4486,-1.0906,-0.2182,
0.657575,0.5201,0.8118,0.3757,-1.9508,-1.8453,1.0880,0.4486,-1.0906,-0.2182,
0.659043,0.5301,0.8079,0.3814,-1.9508,-1.8453,1.0880,0.4486,-1.0906,-0.2182,
0.661635,0.5374,0.8045,0.3840,-1.9508,-1.8453,1.0880,0.4486,-1.0906,-0.2182,
0.664028,0.5413,0.8020,0.3831,-1.9508,-1.8453,1.0880,0.4486,-1.0906,-0.2182,
0.666286,0.5377,0.7984,0.3784,-1.9508,-1.8453,1.0880,0.4486,-1.0906,-0.2182,
0.668909,0.5323,0.7984,0.3718,-1.9508,-1.8453,1.0880,0.4486,-1.0906,-0.2182,
0.671209,0.5245,0.7984,0.3652,-1.9508,-1.8453,1.0880,0.4486,-1.0906,-0.2182,
0.673668,0.5162,0.7988,0.3594,-1.9508,-1.8453,1.0880,0.4486,-1.0906,-0.2182,
0.676157,0.5086,0.8025,0.3564,-1.9508,-1.8453,1.0880,0.4486,-1.0906,-0.2182,
0.678438,0.5040,0.8045,0.3518,-1.9508,-1.8453,1.0880,0.4486,-1.0906,-0.2182,
0.681067,0.4991,0.8103,0.3486,-1.9508,-1.8453,1.0880,0.4486,-1.0906,-0.2182,
0.683409,0.4957,0.8172,0.3474,-1.9508,-1.8453,1.0880,0.4486,-1.0906,-0.2182,
0.685839,0.4906,0.8281,0.3491,-1.9508,-1.8453,1.0880,0.4486,-1.0906,-0.2182,
0.688343,0.4876,0.8350,0.3535,-1.9508,-1.8453,1.0880,0.4486,-1.0906,-0.2182,
0.690685,0.4856,0.8414,0.3625,-1.9508,-1.8453,1.0880,0.4486,-1.0906,-0.2182,
0.693135,0.4861,0.8475,0.3806,-1.9508,-1.8453,1.0880,0.4486,-1.0906,-0.2182,
0.695613,0.4884,0.8560,0.3994,-1.9508,-1.8453,1.0880,0.4486,-1.0906,-0.2182,
0.699021,0.4974,0.8631,0.4219,-1.9508,-1.8453,1.0880,0.4486,-1.0906,-0.2182,
0.700870,0.5091,0.8653,0.4429,-1.9508,-1.8453,1.0880,0.4486,-1.0906,-0.2182,
0.703075,0.5221,0.8680,0.4615,-1.9508,-1.8453,1.0880,0.4486,-1.0906,-0.2182,
0.705196,0.5387,0.8719,0.4742,-1.9508,-1.8453,1.0880,0.4486,-1.0906,-0.2182,
0.707812,0.5541,0.8719,0.4793,-1.9508,-1.8453,1.0880,0.4486,-1.0906,-0.2182,
0.710166,0.5663,0.8741,0.4771,-1.9508,-1.8453,1.0880,0.4486,-1.0906,-0.2182,
0.712688,0.5760,0.8743,0.4698,-1.9508,-1.8453,1.0880,0.4486,-1.0906,-0.2182,
0.715490,0.5760,0.8743,0.4698,-1.9508,-1.8453,1.0880,0.0136,-0.6174,-0.1852,
0.715803,0.5853,0.8748,0.4605,-1.9508,-1.8453,1.0880,0.0136,-0.6174,-0.1852,
0.718086,0.5917,0.8738,0.4485,-1.9508,-1.8453,1.0880,0.0136,-0.6174,-0.1852,
0.720037,0.5980,0.8748,0.4380,-1.9508,-1.8453,1.0880,0.0136,-0.6174,-0.1852,
0.722365,0.6020,0.8743,0.4277,-1.9508,-1.8453,1.0880,0.0136,-0.6174,-0.1852,
0.722799,0.6020,0.8743,0.4277,-1.2096,-0.5371,-0.1118,0.0136,-0.6174,-0.1852,
0.724953,0.6054,0.8755,0.4192,-1.2096,-0.5371,-0.1118,0.0136,-0.6174,-0.1852,
0.727397,0.6100,0.8714,0.4126,-1.2096,-0.5371,-0.1118,0.0136,-0.6174,-0.1852,
0.729551,0.6117,0.8648,0.4058,-1.2096,-0.5371,-0.1118,0.0136,-0.6174,-0.1852,
0.732364,0.6137,0.8611,0.3977,-1.2096,-0.5371,-0.1118,0.0136,-0.6174,-0.1852,
0.734689,0.6112,0.8543,0.3911,-1.2096,-0.5371,-0.1118,0.0136,-0.6174,-0.1852,
0.737836,0.6105,0.8521,0.3838,-1.2096,-0.5371,-0.1118,0.0136,-0.6174,-0.1852,
0.739312,0.6064,0.8509,0.3792,-1.2096,-0.5371,-0.1118,0.0136,-0.6174,-0.1852,
0.741789,0.6007,0.8433,0.3726,-1.2096,-0.5371,-0.1118,0.0136,-0.6174,-0.1852,
0.744194,0.5944,0.8353,0.3706,-1.2096,-0.5371,-0.1118,0.0136,-0.6174,-0.1852,
0.746634,0.5907,0.8328,0.3711,-1.2096,-0.5371,-0.1118,0.0136,-0.6174,-0.1852,
0.749821,0.5831,0.8338,0.3740,-1.2096,-0.5371,-0.1118,0.0136,-0.6174,-0.1852,
0.751820,0.5753,0.8426,0.3789,-1.2096,-0.5371,-0.1118,0.0136,-0.6174,-0.1852,
0.753940,0.5670,0.8519,0.3884,-1.2096,-0.5371,-0.1118,0.0136,-0.6174,-0.1852,
0.758407,0.5575,0.8626,0.4002,-1.2096,-0.5371,-0.1118,0.0136,-0.6174,-0.1852,
0.758849,0.5472,0.8675,0.4129,-1.2096,-0.5371,-0.1118,0.0136,-0.6174,-0.1852,
0.761355,0.5360,0.8682,0.4265,-1.2096,-0.5371,-0.1118,0.0136,-0.6174,-0.1852,
0.763721,0.5262,0.8680,0.4415,-1.2096,-0.5371,-0.1118,0.0136,-0.6174,-0.1852,
0.766633,0.5186,0.8655,0.4566,-1.2096,-0.5371,-0.1118,0.0136,-0.6174,-0.1852,
0.768586,0.5120,0.8614,0.4705,-1.2096,-0.5371,-0.1118,0.0136,-0.6174,-0.1852,
0.770932,0.5074,0.8502,0.4827,-1.2096,-0.5371,-0.1118,0.0136,-0.6174,-0.1852,
0.773370,0.5069,0.8377,0.4930,-1.2096,-0.5371,-0.1118,0.0136,-0.6174,-0.1852,
0.776096,0.5052,0.8213,0.4991,-1.2096,-0.5371,-0.1118,0.0136,-0.6174,-0.1852,
0.778372,0.5040,0.8032,0.5008,-1.2096,-0.5371,-0.1118,0.0136,-0.6174,-0.1852,
0.780944,0.5013,0.7837,0.4981,-1.2096,-0.5371,-0.1118,0.0136,-0.6174,-0.1852,
0.783906,0.5013,0.7837,0.4981,-1.2096,-0.5371,-0.1118,-0.2598,-0.2174,-0.3867,
0.784333,0.5001,0.7624,0.4918,-1.2096,-0.5371,-0.1118,-0.2598,-0.2174,-0.3867,
0.785731,0.4962,0.7410,0.4827,-1.2096,-0.5371,-0.1118,-0.2598,-0.2174,-0.3867,
0.788111,0.4942,0.7187,0.4708,-1.2096,-0.5371,-0.1118,-0.2598,-0.2174,-0.3867,
0.790445,0.4859,0.6987,0.4527,-1.2096,-0.5371,-0.1118,-0.2598,-0.2174,-0.3867,
0.790979,0.4859,0.6987,0.4527,-0.0238,0.2992,0.3571,-0.2598,-0.2174,-0.3867,
0.793283,0.4764,0.6735,0.4358,-0.0238,0.2992,0.3571,-0.2598,-0.2174,-0.3867,
0.795787,0.4671,0.6505,0.4182,-0.0238,0.2992,0.3571,-0.2598,-0.2174,-0.3867,
0.798008,0.4566,0.6303,0.4048,-0.0238,0.2992,0.3571,-0.2598,-0.2174,-0.3867,
0.800865,0.4407,0.6083,0.3931,-0.0238,0.2992,0.3571,-0.2598,-0.2174,-0.3867,
0.802892,0.4224,0.5912,0.3843,-0.0238,0.2992,0.3571,-0.2598,-0.2174,-0.3867,
0.805094,0.4033,0.5729,0.3777,-0.0238,0.2992,0.3571,-0.2598,-0.2174,-0.3867,
0.807660,0.3816,0.5521,0.3713,-0.0238,0.2992,0.3571,-0.2598,-0.2174,-0.3867,
0.810153,0.3535,0.5333,0.3696,-0.0238,0.2992,0.3571,-0.2598,-0.2174,-0.3867,
0.812548,0.3232,0.5140,0.3720,-0.0238,0.2992,0.3571,-0.2598,-0.2174,-0.3867,
0.823978,0.2868,0.4972,0.3806,-0.0238,0.2992,0.3571,-0.2598,-0.2174,-0.3867,
0.824521,0.2543,0.4771,0.3919,-0.0238,0.2992,0.3571,-0.2598,-0.2174,-0.3867,
0.824967,0.2147,0.4556,0.4019,-0.0238,0.2992,0.3571,-0.2598,-0.2174,-0.3867,
0.825424,0.1722,0.4324,0.4126,-0.0238,0.2992,0.3571,-0.2598,-0.2174,-0.3867,
0.825830,0.1302,0.4116,0.4187,-0.0238,0.2992,0.3571,-0.2598,-0.2174,-0.3867,
0.827342,0.0906,0.3884,0.4216,-0.0238,0.2992,0.3571,-0.2598,-0.2174,-0.3867,
0.829544,0.0494,0.3659,0.4221,-0.0238,0.2992,0.3571,-0.2598,-0.2174,-0.3867,
0.832081,0.0078,0.3393,0.4219,-0.0238,0.2992,0.3571,-0.2598,-0.2174,-0.3867,
0.834440,-0.0303,0.3095,0.4212,-0.0238,0.2992,0.3571,-0.2598,-0.2174,-0.3867,
0.837376,-0.0679,0.2775,0.4192,-0.0238,0.2992,0.3571,-0.2598,-0.2174,-0.3867,
0.839180,-0.1029,0.2443,0.4207,-0.0238,0.2992,0.3571,-0.2598,-0.2174,-0.3867,
0.841805,-0.1375,0.2064,0.4216,-0.0238,0.2992,0.3571,-0.2598,-0.2174,-0.3867,
0.844203,-0.1893,0.1659,0.4295,-0.0238,0.2992,0.3571,-0.2598,-0.2174,-0.3867,
0.846625,-0.2367,0.1253,0.4422,-0.0238,0.2992,0.3571,-0.2598,-0.2174,-0.3867,
0.848968,-0.2783,0.0931,0.4541,-0.0238,0.2992,0.3571,-0.2598,-0.2174,-0.3867,
0.851535,-0.2783,0.0931,0.4541,-0.0238,0.2992,0.3571,-0.1131,-0.0522,-0.4283,
0.851990,-0.3188,0.0642,0.4649,-0.0238,0.2992,0.3571,-0.1131,-0.0522,-0.4283,
0.853891,-0.3618,0.0411,0.4678,-0.0238,0.2992,0.3571,-0.1131,-0.0522,-0.4283,
0.857247,-0.4109,0.0190,0.4605,-0.0238,0.2992,0.3571,-0.1131,-0.0522,-0.4283,
0.859173,-0.4598,-0.0017,0.4478,-0.0238,0.2992,0.3571,-0.1131,-0.0522,-0.4283,
0.859786,-0.4598,-0.0017,0.4478,0.3704,0.1442,0.4737,-0.1131,-0.0522,-0.4283,
0.861325,-0.5064,-0.0181,0.4390,0.3704,0.1442,0.4737,-0.1131,-0.0522,-0.4283,
0.863901,-0.5533,-0.0320,0.4351,0.3704,0.1442,0.4737,-0.1131,-0.0522,-0.4283,
0.866022,-0.5956,-0.0452,0.4395,0.3704,0.1442,0.4737,-0.1131,-0.0522,-0.4283,
0.868686,-0.6357,-0.0552,0.4483,0.3704,0.1442,0.4737,-0.1131,-0.0522,-0.4283,
0.871635,-0.6740,-0.0684,0.4595,0.3704,0.1442,0.4737,-0.1131,-0.0522,-0.4283,
0.873742,-0.7092,-0.0806,0.4761,0.3704,0.1442,0.4737,-0.1131,-0.0522,-0.4283,
0.877232,-0.7441,-0.0955,0.4972,0.3704,0.1442,0.4737,-0.1131,-0.0522,-0.4283,
0.878536,-0.7744,-0.1131,0.5213,0.3704,0.1442,0.4737,-0.1131,-0.0522,-0.4283,
0.881251,-0.8037,-0.1319,0.5480,0.3704,0.1442,0.4737,-0.1131,-0.0522,-0.4283,
0.883320,-0.8286,-0.1510,0.5731,0.3704,0.1442,0.4737,-0.1131,-0.0522,-0.4283,
0.885627,-0.8487,-0.1749,0.5936,0.3704,0.1442,0.4737,-0.1131,-0.0522,-0.4283,
0.888307,-0.8668,-0.2003,0.6173,0.3704,0.1442,0.4737,-0.1131,-0.0522,-0.4283,
0.890469,-0.8824,-0.2262,0.6437,0.3704,0.1442,0.4737,-0.1131,-0.0522,-0.4283,
0.893815,-0.8951,-0.2526,0.6735,0.3704,0.1442,0.4737,-0.1131,-0.0522,-0.4283,
0.896259,-0.9044,-0.2809,0.7048,0.3704,0.1442,0.4737,-0.1131,-0.0522,-0.4283,
0.898070,-0.9134,-0.3090,0.7339,0.3704,0.1442,0.4737,-0.1131,-0.0522,-0.4283,
0.900352,-0.9186,-0.3376,0.7615,0.3704,0.1442,0.4737,-0.1131,-0.0522,-0.4283,
0.902706,-0.9234,-0.3606,0.7854,0.3704,0.1442,0.4737,-0.1131,-0.0522,-0.4283,
0.905174,-0.9247,-0.3870,0.8089,0.3704,0.1442,0.4737,-0.1131,-0.0522,-0.4283,
0.907505,-0.9261,-0.4107,0.8281,0.3704,0.1442,0.4737,-0.1131,-0.0522,-0.4283,
0.910748,-0.9276,-0.4327,0.8484,0.3704,0.1442,0.4737,-0.1131,-0.0522,-0.4283,
0.913137,-0.9261,-0.4563,0.8677,0.3704,0.1442,0.4737,-0.1131,-0.0522,-0.4283,
0.915125,-0.9193,-0.4769,0.8812,0.3704,0.1442,0.4737,-0.1131,-0.0522,-0.4283,
0.917376,-0.9059,-0.4974,0.8902,0.3704,0.1442,0.4737,-0.1131,-0.0522,-0.4283,
0.920712,-0.9059,-0.4974,0.8902,0.3704,0.1442,0.4737,-0.8566,0.6391,0.6144,
0.921263,-0.8900,-0.5138,0.8934,0.3704,0.1442,0.4737,-0.8566,0.6391,0.6144,
0.922314,-0.8712,-0.5262,0.8924,0.3704,0.1442,0.4737,-0.8566,0.6391,0.6144,
0.924524,-0.8506,-0.5326,0.8870,0.3704,0.1442,0.4737,-0.8566,0.6391,0.6144,
0.927844,-0.8309,-0.5367,0.8812,0.3704,0.1442,0.4737,-0.8566,0.6391,0.6144,
0.928220,-0.8309,-0.5367,0.8812,-3.7013,-4.1257,0.2401,-0.8566,0.6391,0.6144,
0.929820,-0.8103,-0.5418,0.8721,-3.7013,-4.1257,0.2401,-0.8566,0.6391,0.6144,
0.932515,-0.7923,-0.5446,0.8621,-3.7013,-4.1257,0.2401,-0.8566,0.6391,0.6144,
0.934223,-0.7727,-0.5492,0.8480,-3.7013,-4.1257,0.2401,-0.8566,0.6391,0.6144,
0.937531,-0.7541,-0.5487,0.8277,-3.7013,-4.1257,0.2401,-0.8566,0.6391,0.6144,
0.939203,-0.7324,-0.5494,0.8050,-3.7013,-4.1257,0.2401,-0.8566,0.6391,0.6144,
0.941623,-0.7104,-0.5475,0.7803,-3.7013,-4.1257,0.2401,-0.8566,0.6391,0.6144,
0.944541,-0.6857,-0.5433,0.7566,-3.7013,-4.1257,0.2401,-0.8566,0.6391,0.6144,
0.946611,-0.6596,-0.5374,0.7348,-3.7013,-4.1257,0.2401,-0.8566,0.6391,0.6144,
0.948751,-0.6308,-0.5330,0.7099,-3.7013,-4.1257,0.2401,-0.8566,0.6391,0.6144,
0.951204,-0.6066,-0.5284,0.6843,-3.7013,-4.1257,0.2401,-0.8566,0.6391,0.6144,
0.953913,-0.5853,-0.5282,0.6554,-3.7013,-4.1257,0.2401,-0.8566,0.6391,0.6144,
0.957257,-0.5692,-0.5260,0.6276,-3.7013,-4.1257,0.2401,-0.8566,0.6391,0.6144,
0.958655,-0.5590,-0.5225,0.6034,-3.7013,-4.1257,0.2401,-0.8566,0.6391,0.6144,
0.961838,-0.5558,-0.5162,0.5792,-3.7013,-4.1257,0.2401,-0.8566,0.6391,0.6144,
0.964145,-0.5560,-0.5096,0.5572,-3.7013,-4.1257,0.2401,-0.8566,0.6391,0.6144,
0.966576,-0.5614,-0.4967,0.5352,-3.7013,-4.1257,0.2401,-0.8566,0.6391,0.6144,
0.968730,-0.5629,-0.4856,0.5164,-3.7013,-4.1257,0.2401,-0.8566,0.6391,0.6144,
0.970899,-0.5599,-0.4729,0.5023,-3.7013,-4.1257,0.2401,-0.8566,0.6391,0.6144,
0.973325,-0.5536,-0.4661,0.4937,-3.7013,-4.1257,0.2401,-0.8566,0.6391,0.6144,
0.975830,-0.5441,-0.4588,0.4888,-3.7013,-4.1257,0.2401,-0.8566,0.6391,0.6144,
0.978517,-0.5306,-0.4546,0.4874,-3.7013,-4.1257,0.2401,-0.8566,0.6391,0.6144,
0.980898,-0.5150,-0.4534,0.4866,-3.7013,-4.1257,0.2401,-0.8566,0.6391,0.6144,
0.983024,-0.4969,-0.4512,0.4842,-3.7013,-4.1257,0.2401,-0.8566,0.6391,0.6144,
0.985423,-0.4773,-0.4502,0.4813,-3.7013,-4.1257,0.2401,-0.8566,0.6391,0.6144,
0.988352,-0.4551,-0.4493,0.4788,-3.7013,-4.1257,0.2401,-0.8566,0.6391,0.6144,
0.989240,-0.4551,-0.4493,0.4788,-3.7013,-4.1257,0.2401,0.3923,0.2273,2.7886,
0.990727,-0.4324,-0.4485,0.4766,-3.7013,-4.1257,0.2401,0.3923,0.2273,2.7886,
0.992927,-0.4028,-0.4478,0.4751,-3.7013,-4.1257,0.2401,0.3923,0.2273,2.7886,
0.995557,-0.3703,-0.4488,0.4712,-3.7013,-4.1257,0.2401,0.3923,0.2273,2.7886,
0.995956,-0.3703,-0.4488,0.4712,-11.8560,-9.1263,2.0492,0.3923,0.2273,2.7886,
0.999750,-0.3320,-0.4473,0.4673,-11.8560,-9.1263,2.0492,0.3923,0.2273,2.7886,
1.000241,-0.2890,-0.4468,0.4612,-11.8560,-9.1263,2.0492,0.3923,0.2273,2.7886,
1.002614,-0.2399,-0.4498,0.4537,-11.8560,-9.1263,2.0492,0.3923,0.2273,2.7886,
1.005722,-0.1866,-0.4593,0.4436,-11.8560,-9.1263,2.0492,0.3923,0.2273,2.7886,
1.007409,-0.1295,-0.4715,0.4329,-11.8560,-9.1263,2.0492,0.3923,0.2273,2.7886,
1.009752,-0.0708,-0.4832,0.4197,-11.8560,-9.1263,2.0492,0.3923,0.2273,2.7886,
1.012455,-0.0139,-0.4947,0.4055,-11.8560,-9.1263,2.0492,0.3923,0.2273,2.7886,
1.014669,0.0406,-0.5020,0.3909,-11.8560,-9.1263,2.0492,0.3923,0.2273,2.7886,
1.017340,0.0943,-0.5057,0.3748,-11.8560,-9.1263,2.0492,0.3923,0.2273,2.7886,
1.019993,0.1478,-0.5067,0.3594,-11.8560,-9.1263,2.0492,0.3923,0.2273,2.7886,
1.022231,0.2008,-0.5125,0.3467,-11.8560,-9.1263,2.0492,0.3923,0.2273,2.7886,
1.024567,0.2494,-0.5142,0.3327,-11.8560,-9.1263,2.0492,0.3923,0.2273,2.7886,
1.026866,0.2939,-0.5174,0.3193,-11.8560,-9.1263,2.0492,0.3923,0.2273,2.7886,
1.029466,0.3374,-0.5172,0.3039,-11.8560,-9.1263,2.0492,0.3923,0.2273,2.7886,
1.031785,0.3733,-0.5101,0.2897,-11.8560,-9.1263,2.0492,0.3923,0.2273,2.7886,
1.034157,0.4041,-0.4969,0.2783,-11.8560,-9.1263,2.0492,0.3923,0.2273,2.7886,
1.037590,0.4300,-0.4825,0.2707,-11.8560,-9.1263,2.0492,0.3923,0.2273,2.7886,
1.039368,0.4495,-0.4654,0.2643,-11.8560,-9.1263,2.0492,0.3923,0.2273,2.7886,
1.041755,0.4676,-0.4439,0.2612,-11.8560,-9.1263,2.0492,0.3923,0.2273,2.7886,
1.044069,0.4866,-0.4216,0.2614,-11.8560,-9.1263,2.0492,0.3923,0.2273,2.7886,
1.046541,0.5059,-0.4016,0.2682,-11.8560,-9.1263,2.0492,0.3923,0.2273,2.7886,
1.048779,0.5294,-0.3765,0.2768,-11.8560,-9.1263,2.0492,0.3923,0.2273,2.7886,
1.051113,0.5560,-0.3547,0.2888,-11.8560,-9.1263,2.0492,0.3923,0.2273,2.7886,
1.054569,0.5883,-0.3344,0.3010,-11.8560,-9.1263,2.0492,0.3923,0.2273,2.7886,
1.057397,0.6271,-0.3196,0.3112,-11.8560,-9.1263,2.0492,0.3923,0.2273,2.7886,
1.057876,0.6271,-0.3196,0.3112,-11.8560,-9.1263,2.0492,0.4230,0.3610,4.2607,
1.058507,0.6721,-0.3093,0.3203,-11.8560,-9.1263,2.0492,0.4230,0.3610,4.2607,
1.061119,0.7202,-0.3022,0.3313,-11.8560,-9.1263,2.0492,0.4230,0.3610,4.2607,
1.063627,0.7712,-0.3000,0.3425,-11.8560,-9.1263,2.0492,0.4230,0.3610,4.2607,
1.064280,0.7712,-0.3000,0.3425,-9.9609,-9.8149,1.4228,0.4230,0.3610,4.2607,
1.066362,0.8223,-0.3012,0.3523,-9.9609,-9.8149,1.4228,0.4230,0.3610,4.2607,
1.068524,0.8699,-0.3007,0.3618,-9.9609,-9.8149,1.4228,0.4230,0.3610,4.2607,
1.073127,0.9159,-0.2975,0.3701,-9.9609,-9.8149,1.4228,0.4230,0.3610,4.2607,
1.073512,0.9623,-0.2944,0.3753,-9.9609,-9.8149,1.4228,0.4230,0.3610,4.2607,
1.075745,1.0058,-0.2934,0.3816,-9.9609,-9.8149,1.4228,0.4230,0.3610,4.2607,
1.078255,1.0527,-0.2929,0.3882,-9.9609,-9.8149,1.4228,0.4230,0.3610,4.2607,
1.080513,1.0993,-0.2936,0.3931,-9.9609,-9.8149,1.4228,0.4230,0.3610,4.2607,
1.082945,1.1450,-0.2949,0.3943,-9.9609,-9.8149,1.4228,0.4230,0.3610,4.2607,
1.085292,1.1963,-0.2963,0.3936,-9.9609,-9.8149,1.4228,0.4230,0.3610,4.2607,
1.088551,1.2445,-0.2983,0.3882,-9.9609,-9.8149,1.4228,0.4230,0.3610,4.2607,
1.090662,1.2967,-0.3010,0.3789,-9.9609,-9.8149,1.4228,0.4230,0.3610,4.2607,
1.093316,1.3453,-0.2993,0.3691,-9.9609,-9.8149,1.4228,0.4230,0.3610,4.2607,
1.095202,1.3913,-0.2951,0.3598,-9.9609,-9.8149,1.4228,0.4230,0.3610,4.2607,
1.097781,1.4389,-0.2861,0.3513,-9.9609,-9.8149,1.4228,0.4230,0.3610,4.2607,
1.100047,1.4858,-0.2700,0.3408,-9.9609,-9.8149,1.4228,0.4230,0.3610,4.2607,
1.102404,1.5300,-0.2499,0.3315,-9.9609,-9.8149,1.4228,0.4230,0.3610,4.2607,
1.105495,1.5772,-0.2316,0.3208,-9.9609,-9.8149,1.4228,0.4230,0.3610,4.2607,
1.107625,1.6253,-0.2123,0.3090,-9.9609,-9.8149,1.4228,0.4230,0.3610,4.2607,
1.109682,1.6766,-0.1952,0.2978,-9.9609,-9.8149,1.4228,0.4230,0.3610,4.2607,
1.112332,1.7262,-0.1830,0.2844,-9.9609,-9.8149,1.4228,0.4230,0.3610,4.2607,
1.114606,1.7726,-0.1761,0.2709,-9.9609,-9.8149,1.4228,0.4230,0.3610,4.2607,
1.117332,1.8156,-0.1732,0.2582,-9.9609,-9.8149,1.4228,0.4230,0.3610,4.2607,
1.120880,1.8564,-0.1752,0.2470,-9.9609,-9.8149,1.4228,0.4230,0.3610,4.2607,
1.122452,1.8940,-0.1783,0.2377,-9.9609,-9.8149,1.4228,0.4230,0.3610,4.2607,
1.124919,1.9282,-0.1818,0.2318,-9.9609,-9.8149,1.4228,0.4230,0.3610,4.2607,
1.125345,1.9282,-0.1818,0.2318,-9.9609,-9.8149,1.4228,0.3035,0.1209,4.3880,
1.126994,1.9602,-0.1852,0.2301,-9.9609,-9.8149,1.4228,0.3035,0.1209,4.3880,
1.129185,1.9896,-0.1866,0.2323,-9.9609,-9.8149,1.4228,0.3035,0.1209,4.3880,
1.132218,2.0135,-0.1883,0.2392,-9.9609,-9.8149,1.4228,0.3035,0.1209,4.3880,
1.133072,2.0135,-0.1883,0.2392,-2.5085,-7.3931,-1.1830,0.3035,0.1209,4.3880,
1.134609,2.0352,-0.1849,0.2509,-2.5085,-7.3931,-1.1830,0.3035,0.1209,4.3880,
1.137472,2.0536,-0.1766,0.2641,-2.5085,-7.3931,-1.1830,0.3035,0.1209,4.3880,
1.139166,2.0719,-0.1673,0.2814,-2.5085,-7.3931,-1.1830,0.3035,0.1209,4.3880,
1.141476,2.0890,-0.1578,0.3017,-2.5085,-7.3931,-1.1830,0.3035,0.1209,4.3880,
1.143775,2.1090,-0.1512,0.3237,-2.5085,-7.3931,-1.1830,0.3035,0.1209,4.3880,
1.146251,2.1354,-0.1446,0.3430,-2.5085,-7.3931,-1.1830,0.3035,0.1209,4.3880,
1.148857,2.1654,-0.1402,0.3596,-2.5085,-7.3931,-1.1830,0.3035,0.1209,4.3880,
1.151788,2.2013,-0.1395,0.3755,-2.5085,-7.3931,-1.1830,0.3035,0.1209,4.3880,
1.153691,2.2417,-0.1407,0.3897,-2.5085,-7.3931,-1.1830,0.3035,0.1209,4.3880,
1.156407,2.2847,-0.1456,0.4033,-2.5085,-7.3931,-1.1830,0.3035,0.1209,4.3880,
1.158616,2.3264,-0.1517,0.4155,-2.5085,-7.3931,-1.1830,0.3035,0.1209,4.3880,
1.161080,2.3665,-0.1566,0.4290,-2.5085,-7.3931,-1.1830,0.3035,0.1209,4.3880,
1.163413,2.4019,-0.1571,0.4388,-2.5085,-7.3931,-1.1830,0.3035,0.1209,4.3880,
1.165812,2.4317,-0.1568,0.4422,-2.5085,-7.3931,-1.1830,0.3035,0.1209,4.3880,
1.168180,2.4552,-0.1498,0.4466,-2.5085,-7.3931,-1.1830,0.3035,0.1209,4.3880,
1.170579,2.4735,-0.1385,0.4483,-2.5085,-7.3931,-1.1830,0.3035,0.1209,4.3880,
1.173276,2.4901,-0.1278,0.4490,-2.5085,-7.3931,-1.1830,0.3035,0.1209,4.3880,
1.175833,2.4987,-0.1180,0.4466,-2.5085,-7.3931,-1.1830,0.3035,0.1209,4.3880,
1.178180,2.5004,-0.1060,0.4432,-2.5085,-7.3931,-1.1830,0.3035,0.1209,4.3880,
1.181900,2.4965,-0.0948,0.4393,-2.5085,-7.3931,-1.1830,0.3035,0.1209,4.3880,
1.183214,2.4862,-0.0850,0.4351,-2.5085,-7.3931,-1.1830,0.3035,0.1209,4.3880,
1.185918,2.4706,-0.0765,0.4339,-2.5085,-7.3931,-1.1830,0.3035,0.1209,4.3880,
1.187936,2.4540,-0.0664,0.4334,-2.5085,-7.3931,-1.1830,0.3035,0.1209,4.3880,
1.190259,2.4366,-0.0557,0.4371,-2.5085,-7.3931,-1.1830,0.3035,0.1209,4.3880,
1.193395,2.4366,-0.0557,0.4371,-2.5085,-7.3931,-1.1830,-0.2446,0.1674,3.4032,
1.194173,2.4175,-0.0418,0.4456,-2.5085,-7.3931,-1.1830,-0.2446,0.1674,3.4032,
1.195373,2.4019,-0.0293,0.4551,-2.5085,-7.3931,-1.1830,-0.2446,0.1674,3.4032,
1.198557,2.3909,-0.0186,0.4659,-2.5085,-7.3931,-1.1830,-0.2446,0.1674,3.4032,
1.200559,2.3875,-0.0085,0.4778,-2.5085,-7.3931,-1.1830,-0.2446,0.1674,3.4032,
1.201454,2.3875,-0.0085,0.4778,7.8336,-3.6968,-1.2407,-0.2446,0.1674,3.4032,
1.202641,2.3887,-0.0017,0.4910,7.8336,-3.6968,-1.2407,-0.2446,0.1674,3.4032,
1.204871,2.3951,0.0034,0.5042,7.8336,-3.6968,-1.2407,-0.2446,0.1674,3.4032,
1.207171,2.4080,0.0068,0.5164,7.8336,-3.6968,-1.2407,-0.2446,0.1674,3.4032,
1.210260,2.4278,0.0085,0.5279,7.8336,-3.6968,-1.2407,-0.2446,0.1674,3.4032,
1.212286,2.4537,0.0083,0.5382,7.8336,-3.6968,-1.2407,-0.2446,0.1674,3.4032,
1.215340,2.4815,0.0115,0.5458,7.8336,-3.6968,-1.2407,-0.2446,0.1674,3.4032,
1.217558,2.5136,0.0200,0.5514,7.8336,-3.6968,-1.2407,-0.2446,0.1674,3.4032,
1.219386,2.5477,0.0323,0.5565,7.8336,-3.6968,-1.2407,-0.2446,0.1674,3.4032,
1.221761,2.5856,0.0518,0.5614,7.8336,-3.6968,-1.2407,-0.2446,0.1674,3.4032,
1.224447,2.6233,0.0769,0.5658,7.8336,-3.6968,-1.2407,-0.2446,0.1674,3.4032,
1.226806,2.6572,0.1041,0.5707,7.8336,-3.6968,-1.2407,-0.2446,0.1674,3.4032,
1.229158,2.6912,0.1392,0.5765,7.8336,-3.6968,-1.2407,-0.2446,0.1674,3.4032,
1.232329,2.7310,0.1717,0.5778,7.8336,-3.6968,-1.2407,-0.2446,0.1674,3.4032,
1.234507,2.7698,0.2011,0.5770,7.8336,-3.6968,-1.2407,-0.2446,0.1674,3.4032,
1.237939,2.8023,0.2296,0.5692,7.8336,-3.6968,-1.2407,-0.2446,0.1674,3.4032,
1.238837,2.8336,0.2545,0.5541,7.8336,-3.6968,-1.2407,-0.2446,0.1674,3.4032,
1.241346,2.8646,0.2780,0.5348,7.8336,-3.6968,-1.2407,-0.2446,0.1674,3.4032,
1.243958,2.8930,0.2997,0.5120,7.8336,-3.6968,-1.2407,-0.2446,0.1674,3.4032,
1.246142,2.9145,0.3203,0.4859,7.8336,-3.6968,-1.2407,-0.2446,0.1674,3.4032,
1.249233,2.9296,0.3396,0.4573,7.8336,-3.6968,-1.2407,-0.2446,0.1674,3.4032,
1.251807,2.9408,0.3603,0.4285,7.8336,-3.6968,-1.2407,-0.2446,0.1674,3.4032,
1.253803,2.9481,0.3804,0.3958,7.8336,-3.6968,-1.2407,-0.2446,0.1674,3.4032,
1.256144,2.9469,0.3994,0.3618,7.8336,-3.6968,-1.2407,-0.2446,0.1674,3.4032,
1.258639,2.9381,0.4160,0.3283,7.8336,-3.6968,-1.2407,-0.2446,0.1674,3.4032,
1.261352,2.9381,0.4160,0.3283,7.8336,-3.6968,-1.2407,0.2484,-0.3282,2.1176,
1.261986,2.9242,0.4307,0.2988,7.8336,-3.6968,-1.2407,0.2484,-0.3282,2.1176,
1.263535,2.9040,0.4454,0.2719,7.8336,-3.6968,-1.2407,0.2484,-0.3282,2.1176,
1.266227,2.8756,0.4583,0.2487,7.8336,-3.6968,-1.2407,0.2484,-0.3282,2.1176,
1.268509,2.8443,0.4705,0.2306,7.8336,-3.6968,-1.2407,0.2484,-0.3282,2.1176,
1.268871,2.8443,0.4705,0.2306,15.4398,-0.8750,-0.5431,0.2484,-0.3282,2.1176,
1.270572,2.8096,0.4817,0.2169,15.4398,-0.8750,-0.5431,0.2484,-0.3282,2.1176,
1.273375,2.7757,0.4918,0.2064,15.4398,-0.8750,-0.5431,0.2484,-0.3282,2.1176,
1.275479,2.7408,0.4993,0.1991,15.4398,-0.8750,-0.5431,0.2484,-0.3282,2.1176,
1.277891,2.7068,0.5067,0.1952,15.4398,-0.8750,-0.5431,0.2484,-0.3282,2.1176,
1.280629,2.6760,0.5096,0.1966,15.4398,-0.8750,-0.5431,0.2484,-0.3282,2.1176,
1.282971,2.6469,0.5118,0.1984,15.4398,-0.8750,-0.5431,0.2484,-0.3282,2.1176,
1.285319,2.6240,0.5145,0.2072,15.4398,-0.8750,-0.5431,0.2484,-0.3282,2.1176,
1.287651,2.6034,0.5147,0.2216,15.4398,-0.8750,-0.5431,0.2484,-0.3282,2.1176,
1.289925,2.5871,0.5155,0.2375,15.4398,-0.8750,-0.5431,0.2484,-0.3282,2.1176,
1.292523,2.5712,0.5164,0.2550,15.4398,-0.8750,-0.5431,0.2484,-0.3282,2.1176,
1.294863,2.5593,0.5150,0.2717,15.4398,-0.8750,-0.5431,0.2484,-0.3282,2.1176,
1.297471,2.5531,0.5135,0.2873,15.4398,-0.8750,-0.5431,0.2484,-0.3282,2.1176,
1.300112,2.5524,0.5098,0.2990,15.4398,-0.8750,-0.5431,0.2484,-0.3282,2.1176,
1.302417,2.5524,0.5055,0.3068,15.4398,-0.8750,-0.5431,0.2484,-0.3282,2.1176,
1.304660,2.5529,0.5001,0.3129,15.4398,-0.8750,-0.5431,0.2484,-0.3282,2.1176,
1.307257,2.5529,0.4935,0.3169,15.4398,-0.8750,-0.5431,0.2484,-0.3282,2.1176,
1.310216,2.5522,0.4898,0.3152,15.4398,-0.8750,-0.5431,0.2484,-0.3282,2.1176,
1.312872,2.5477,0.4859,0.3120,15.4398,-0.8750,-0.5431,0.2484,-0.3282,2.1176,
1.325463,2.5429,0.4800,0.3078,15.4398,-0.8750,-0.5431,0.2484,-0.3282,2.1176,
1.325942,2.5350,0.4732,0.3039,15.4398,-0.8750,-0.5431,0.2484,-0.3282,2.1176,
1.326275,2.5258,0.4686,0.2988,15.4398,-0.8750,-0.5431,0.2484,-0.3282,2.1176,
1.326633,2.5133,0.4605,0.2912,15.4398,-0.8750,-0.5431,0.2484,-0.3282,2.1176,
1.327056,2.4984,0.4556,0.2805,15.4398,-0.8750,-0.5431,0.2484,-0.3282,2.1176,
1.327507,2.4808,0.4517,0.2707,15.4398,-0.8750,-0.5431,0.2484,-0.3282,2.1176,
1.329183,2.4808,0.4517,0.2707,15.4398,-0.8750,-0.5431,0.6338,-0.1463,0.1706,
1.329501,2.4625,0.4454,0.2626,15.4398,-0.8750,-0.5431,0.6338,-0.1463,0.1706,
1.331410,2.4391,0.4356,0.2572,15.4398,-0.8750,-0.5431,0.6338,-0.1463,0.1706,
1.334056,2.4183,0.4273,0.2548,15.4398,-0.8750,-0.5431,0.6338,-0.1463,0.1706,
1.337505,2.3963,0.4148,0.2555,15.4398,-0.8750,-0.5431,0.6338,-0.1463,0.1706,
1.337836,2.3963,0.4148,0.2555,18.1819,3.0060,0.3328,0.6338,-0.1463,0.1706,
1.339037,2.3738,0.4006,0.2590,18.1819,3.0060,0.3328,0.6338,-0.1463,0.1706,
1.342319,2.3523,0.3848,0.2685,18.1819,3.0060,0.3328,0.6338,-0.1463,0.1706,
1.343960,2.3311,0.3679,0.2802,18.1819,3.0060,0.3328,0.6338,-0.1463,0.1706,
1.346229,2.3115,0.3515,0.2941,18.1819,3.0060,0.3328,0.6338,-0.1463,0.1706,
1.349337,2.2881,0.3347,0.3080,18.1819,3.0060,0.3328,0.6338,-0.1463,0.1706,
1.351047,2.2668,0.3196,0.3222,18.1819,3.0060,0.3328,0.6338,-0.1463,0.1706,
1.353468,2.2453,0.3044,0.3366,18.1819,3.0060,0.3328,0.6338,-0.1463,0.1706,
1.355792,2.2182,0.2924,0.3528,18.1819,3.0060,0.3328,0.6338,-0.1463,0.1706,
1.359265,2.1921,0.2797,0.3711,18.1819,3.0060,0.3328,0.6338,-0.1463,0.1706,
1.361342,2.1635,0.2692,0.3889,18.1819,3.0060,0.3328,0.6338,-0.1463,0.1706,
1.363786,2.1334,0.2592,0.4077,18.1819,3.0060,0.3328,0.6338,-0.1463,0.1706,
1.365604,2.1034,0.2509,0.4263,18.1819,3.0060,0.3328,0.6338,-0.1463,0.1706,
1.368052,2.0787,0.2428,0.4436,18.1819,3.0060,0.3328,0.6338,-0.1463,0.1706,
1.370603,2.0536,0.2345,0.4607,18.1819,3.0060,0.3328,0.6338,-0.1463,0.1706,
1.372893,2.0313,0.2257,0.4769,18.1819,3.0060,0.3328,0.6338,-0.1463,0.1706,
1.376410,2.0093,0.2145,0.4925,18.1819,3.0060,0.3328,0.6338,-0.1463,0.1706,
1.378329,1.9908,0.2020,0.5091,18.1819,3.0060,0.3328,0.6338,-0.1463,0.1706,
1.380491,1.9746,0.1888,0.5211,18.1819,3.0060,0.3328,0.6338,-0.1463,0.1706,
1.382677,1.9553,0.1761,0.5306,18.1819,3.0060,0.3328,0.6338,-0.1463,0.1706,
1.385237,1.9390,0.1681,0.5367,18.1819,3.0060,0.3328,0.6338,-0.1463,0.1706,
1.387744,1.9251,0.1625,0.5441,18.1819,3.0060,0.3328,0.6338,-0.1463,0.1706,
1.389973,1.9123,0.1590,0.5519,18.1819,3.0060,0.3328,0.6338,-0.1463,0.1706,
1.393224,1.9045,0.1603,0.5592,18.1819,3.0060,0.3328,0.6338,-0.1463,0.1706,
1.395189,1.8982,0.1622,0.5675,18.1819,3.0060,0.3328,0.6338,-0.1463,0.1706,
1.397321,1.8982,0.1622,0.5675,18.1819,3.0060,0.3328,0.4600,-0.4449,-1.4598,
1.397678,1.8923,0.1632,0.5773,18.1819,3.0060,0.3328,0.4600,-0.4449,-1.4598,
1.400307,1.8928,0.1639,0.5856,18.1819,3.0060,0.3328,0.4600,-0.4449,-1.4598,
1.402216,1.8930,0.1686,0.5948,18.1819,3.0060,0.3328,0.4600,-0.4449,-1.4598,
1.404828,1.8965,0.1708,0.6017,18.1819,3.0060,0.3328,0.4600,-0.4449,-1.4598,
1.405216,1.8965,0.1708,0.6017,15.7579,5.1737,-1.6054,0.4600,-0.4449,-1.4598,
1.407059,1.9013,0.1749,0.6095,15.7579,5.1737,-1.6054,0.4600,-0.4449,-1.4598,
1.410363,1.9077,0.1822,0.6164,15.7579,5.1737,-1.6054,0.4600,-0.4449,-1.4598,
1.412092,1.9153,0.1876,0.6215,15.7579,5.1737,-1.6054,0.4600,-0.4449,-1.4598,
1.414335,1.9212,0.1949,0.6239,15.7579,5.1737,-1.6054,0.4600,-0.4449,-1.4598,
1.419366,1.9263,0.2025,0.6286,15.7579,5.1737,-1.6054,0.4600,-0.4449,-1.4598,
1.419788,1.9351,0.2099,0.6335,15.7579,5.1737,-1.6054,0.4600,-0.4449,-1.4598,
1.421759,1.9490,0.2138,0.6398,15.7579,5.1737,-1.6054,0.4600,-0.4449,-1.4598,
1.424024,1.9636,0.2174,0.6459,15.7579,5.1737,-1.6054,0.4600,-0.4449,-1.4598,
1.427157,1.9795,0.2165,0.6515,15.7579,5.1737,-1.6054,0.4600,-0.4449,-1.4598,
1.429154,1.9988,0.2106,0.6549,15.7579,5.1737,-1.6054,0.4600,-0.4449,-1.4598,
1.431343,2.0154,0.2011,0.6554,15.7579,5.1737,-1.6054,0.4600,-0.4449,-1.4598,
1.433979,2.0291,0.1898,0.6547,15.7579,5.1737,-1.6054,0.4600,-0.4449,-1.4598,
1.437397,2.0431,0.1778,0.6562,15.7579,5.1737,-1.6054,0.4600,-0.4449,-1.4598,
1.438724,2.0555,0.1647,0.6559,15.7579,5.1737,-1.6054,0.4600,-0.4449,-1.4598,
1.441122,2.0682,0.1510,0.6547,15.7579,5.1737,-1.6054,0.4600,-0.4449,-1.4598,
1.444084,2.0772,0.1419,0.6525,15.7579,5.1737,-1.6054,0.4600,-0.4449,-1.4598,
1.446218,2.0855,0.1351,0.6508,15.7579,5.1737,-1.6054,0.4600,-0.4449,-1.4598,
1.448601,2.0912,0.1339,0.6488,15.7579,5.1737,-1.6054,0.4600,-0.4449,-1.4598,
1.450998,2.0931,0.1363,0.6469,15.7579,5.1737,-1.6054,0.4600,-0.4449,-1.4598,
1.453434,2.0917,0.1331,0.6418,15.7579,5.1737,-1.6054,0.4600,-0.4449,-1.4598,
1.456044,2.0875,0.1300,0.6371,15.7579,5.1737,-1.6054,0.4600,-0.4449,-1.4598,
1.458272,2.0846,0.1217,0.6298,15.7579,5.1737,-1.6054,0.4600,-0.4449,-1.4598,
1.461562,2.0804,0.1090,0.6200,15.7579,5.1737,-1.6054,0.4600,-0.4449,-1.4598,
1.463305,2.0719,0.0916,0.6078,15.7579,5.1737,-1.6054,0.4600,-0.4449,-1.4598,
1.466114,2.0719,0.0916,0.6078,15.7579,5.1737,-1.6054,0.7785,-1.3665,-2.1076,
1.467077,2.0604,0.0723,0.5919,15.7579,5.1737,-1.6054,0.7785,-1.3665,-2.1076,
1.468205,2.0482,0.0564,0.5758,15.7579,5.1737,-1.6054,0.7785,-1.3665,-2.1076,
1.470469,2.0330,0.0393,0.5607,15.7579,5.1737,-1.6054,0.7785,-1.3665,-2.1076,
1.472980,2.0135,0.0266,0.5423,15.7579,5.1737,-1.6054,0.7785,-1.3665,-2.1076,
1.473364,2.0135,0.0266,0.5423,10.2793,1.5471,0.5407,0.7785,-1.3665,-2.1076,
1.475264,1.9925,0.0208,0.5250,10.2793,1.5471,0.5407,0.7785,-1.3665,-2.1076,
1.478082,1.9707,0.0142,0.5079,10.2793,1.5471,0.5407,0.7785,-1.3665,-2.1076,
1.480318,1.9463,0.0110,0.4962,10.2793,1.5471,0.5407,0.7785,-1.3665,-2.1076,
1.482606,1.9251,0.0046,0.4844,10.2793,1.5471,0.5407,0.7785,-1.3665,-2.1076,
1.486475,1.9018,-0.0032,0.4783,10.2793,1.5471,0.5407,0.7785,-1.3665,-2.1076,
1.487626,1.8789,-0.0142,0.4764,10.2793,1.5471,0.5407,0.7785,-1.3665,-2.1076,
1.489896,1.8581,-0.0266,0.4756,10.2793,1.5471,0.5407,0.7785,-1.3665,-2.1076,
1.492401,1.8361,-0.0430,0.4749,10.2793,1.5471,0.5407,0.7785,-1.3665,-2.1076,
1.494929,1.8154,-0.0620,0.4742,10.2793,1.5471,0.5407,0.7785,-1.3665,-2.1076,
1.497476,1.7921,-0.0794,0.4737,10.2793,1.5471,0.5407,0.7785,-1.3665,-2.1076,
1.500215,1.7697,-0.0968,0.4732,10.2793,1.5471,0.5407,0.7785,-1.3665,-2.1076,
1.503395,1.7472,-0.1116,0.4732,10.2793,1.5471,0.5407,0.7785,-1.3665,-2.1076,
1.504663,1.7206,-0.1236,0.4761,10.2793,1.5471,0.5407,0.7785,-1.3665,-2.1076,
1.506920,1.6918,-0.1307,0.4781,10.2793,1.5471,0.5407,0.7785,-1.3665,-2.1076,
1.509391,1.6629,-0.1380,0.4832,10.2793,1.5471,0.5407,0.7785,-1.3665,-2.1076,
1.511905,1.6341,-0.1446,0.4893,10.2793,1.5471,0.5407,0.7785,-1.3665,-2.1076,
1.514473,1.6028,-0.1507,0.4976,10.2793,1.5471,0.5407,0.7785,-1.3665,-2.1076,
1.517402,1.5747,-0.1627,0.5062,10.2793,1.5471,0.5407,0.7785,-1.3665,-2.1076,
1.520914,1.5471,-0.1754,0.5125,10.2793,1.5471,0.5407,0.7785,-1.3665,-2.1076,
1.522596,1.5232,-0.1893,0.5164,10.2793,1.5471,0.5407,0.7785,-1.3665,-2.1076,
1.524002,1.4961,-0.2035,0.5196,10.2793,1.5471,0.5407,0.7785,-1.3665,-2.1076,
1.526385,1.4665,-0.2145,0.5233,10.2793,1.5471,0.5407,0.7785,-1.3665,-2.1076,
1.528921,1.4352,-0.2230,0.5286,10.2793,1.5471,0.5407,0.7785,-1.3665,-2.1076,
1.531419,1.4035,-0.2301,0.5306,10.2793,1.5471,0.5407,0.7785,-1.3665,-2.1076,
1.533699,1.4035,-0.2301,0.5306,10.2793,1.5471,0.5407,0.7636,-0.7784,-3.0407,
1.534055,1.3698,-0.2353,0.5299,10.2793,1.5471,0.5407,0.7636,-0.7784,-3.0407,
1.537408,1.3365,-0.2387,0.5279,10.2793,1.5471,0.5407,0.7636,-0.7784,-3.0407,
1.538985,1.3031,-0.2438,0.5228,10.2793,1.5471,0.5407,0.7636,-0.7784,-3.0407,
1.541351,1.2728,-0.2509,0.5138,10.2793,1.5471,0.5407,0.7636,-0.7784,-3.0407,
1.541908,1.2728,-0.2509,0.5138,9.1688,-1.0372,3.2063,0.7636,-0.7784,-3.0407,
1.543647,1.2469,-0.2572,0.5033,9.1688,-1.0372,3.2063,0.7636,-0.7784,-3.0407,
1.545954,1.2212,-0.2668,0.4884,9.1688,-1.0372,3.2063,0.7636,-0.7784,-3.0407,
1.548470,1.1968,-0.2773,0.4732,9.1688,-1.0372,3.2063,0.7636,-0.7784,-3.0407,
1.550755,1.1711,-0.2868,0.4585,9.1688,-1.0372,3.2063,0.7636,-0.7784,-3.0407,
1.554051,1.1448,-0.2949,0.4444,9.1688,-1.0372,3.2063,0.7636,-0.7784,-3.0407,
1.555995,1.1167,-0.3024,0.4314,9.1688,-1.0372,3.2063,0.7636,-0.7784,-3.0407,
1.558135,1.0852,-0.3110,0.4209,9.1688,-1.0372,3.2063,0.7636,-0.7784,-3.0407,
1.560716,1.0539,-0.3188,0.4114,9.1688,-1.0372,3.2063,0.7636,-0.7784,-3.0407,
1.563255,1.0236,-0.3254,0.4031,9.1688,-1.0372,3.2063,0.7636,-0.7784,-3.0407,
1.565818,0.9909,-0.3330,0.3948,9.1688,-1.0372,3.2063,0.7636,-0.7784,-3.0407,
1.568147,0.9555,-0.3403,0.3858,9.1688,-1.0372,3.2063,0.7636,-0.7784,-3.0407,
1.571335,0.9190,-0.3471,0.3760,9.1688,-1.0372,3.2063,0.7636,-0.7784,-3.0407,
1.573411,0.8804,-0.3542,0.3662,9.1688,-1.0372,3.2063,0.7636,-0.7784,-3.0407,
1.576098,0.8428,-0.3591,0.3584,9.1688,-1.0372,3.2063,0.7636,-0.7784,-3.0407,
1.577962,0.8054,-0.3650,0.3530,9.1688,-1.0372,3.2063,0.7636,-0.7784,-3.0407,
1.580405,0.7688,-0.3677,0.3469,9.1688,-1.0372,3.2063,0.7636,-0.7784,-3.0407,
1.582881,0.7319,-0.3711,0.3440,9.1688,-1.0372,3.2063,0.7636,-0.7784,-3.0407,
1.585056,0.6965,-0.3726,0.3430,9.1688,-1.0372,3.2063,0.7636,-0.7784,-3.0407,
1.588506,0.6601,-0.3716,0.3427,9.1688,-1.0372,3.2063,0.7636,-0.7784,-3.0407,
1.589938,0.6244,-0.3733,0.3427,9.1688,-1.0372,3.2063,0.7636,-0.7784,-3.0407,
1.592554,0.5912,-0.3774,0.3435,9.1688,-1.0372,3.2063,0.7636,-0.7784,-3.0407,
1.594869,0.5587,-0.3831,0.3418,9.1688,-1.0372,3.2063,0.7636,-0.7784,-3.0407,
1.597610,0.5296,-0.3875,0.3423,9.1688,-1.0372,3.2063,0.7636,-0.7784,-3.0407,
1.599921,0.4981,-0.3933,0.3398,9.1688,-1.0372,3.2063,0.7636,-0.7784,-3.0407,
1.602146,0.4981,-0.3933,0.3398,9.1688,-1.0372,3.2063,0.7824,-0.5508,-3.3033,
1.602893,0.4688,-0.3967,0.3359,9.1688,-1.0372,3.2063,0.7824,-0.5508,-3.3033,
1.605410,0.4373,-0.3980,0.3330,9.1688,-1.0372,3.2063,0.7824,-0.5508,-3.3033,
1.606995,0.4067,-0.4002,0.3303,9.1688,-1.0372,3.2063,0.7824,-0.5508,-3.3033,
1.609348,0.3792,-0.4009,0.3283,9.1688,-1.0372,3.2063,0.7824,-0.5508,-3.3033,
1.609791,0.3792,-0.4009,0.3283,6.0273,-5.7810,2.4938,0.7824,-0.5508,-3.3033,
1.611954,0.3491,-0.4014,0.3257,6.0273,-5.7810,2.4938,0.7824,-0.5508,-3.3033,
1.614354,0.3208,-0.4006,0.3191,6.0273,-5.7810,2.4938,0.7824,-0.5508,-3.3033,
1.617709,0.2946,-0.4038,0.3110,6.0273,-5.7810,2.4938,0.7824,-0.5508,-3.3033,
1.619180,0.2682,-0.4050,0.3029,6.0273,-5.7810,2.4938,0.7824,-0.5508,-3.3033,
1.622388,0.2438,-0.4124,0.2905,6.0273,-5.7810,2.4938,0.7824,-0.5508,-3.3033,
1.624343,0.2189,-0.4182,0.2802,6.0273,-5.7810,2.4938,0.7824,-0.5508,-3.3033,
1.626610,0.1908,-0.4238,0.2663,6.0273,-5.7810,2.4938,0.7824,-0.5508,-3.3033,
1.629307,0.1608,-0.4256,0.2533,6.0273,-5.7810,2.4938,0.7824,-0.5508,-3.3033,
1.631948,0.1319,-0.4260,0.2399,6.0273,-5.7810,2.4938,0.7824,-0.5508,-3.3033,
1.633968,0.0999,-0.4214,0.2267,6.0273,-5.7810,2.4938,0.7824,-0.5508,-3.3033,
1.637401,0.0655,-0.4168,0.2125,6.0273,-5.7810,2.4938,0.7824,-0.5508,-3.3033,
1.640118,0.0335,-0.4089,0.1979,6.0273,-5.7810,2.4938,0.7824,-0.5508,-3.3033,
1.641350,-0.0002,-0.4043,0.1832,6.0273,-5.7810,2.4938,0.7824,-0.5508,-3.3033,
1.643755,-0.0337,-0.4006,0.1673,6.0273,-5.7810,2.4938,0.7824,-0.5508,-3.3033,
1.648036,-0.0672,-0.3999,0.1481,6.0273,-5.7810,2.4938,0.7824,-0.5508,-3.3033,
1.648874,-0.0985,-0.4043,0.1261,6.0273,-5.7810,2.4938,0.7824,-0.5508,-3.3033,
1.651021,-0.1285,-0.4082,0.1014,6.0273,-5.7810,2.4938,0.7824,-0.5508,-3.3033,
1.653415,-0.1600,-0.4151,0.0735,6.0273,-5.7810,2.4938,0.7824,-0.5508,-3.3033,
1.656292,-0.1937,-0.4204,0.0432,6.0273,-5.7810,2.4938,0.7824,-0.5508,-3.3033,
1.658539,-0.2265,-0.4253,0.0151,6.0273,-5.7810,2.4938,0.7824,-0.5508,-3.3033,
1.660731,-0.2555,-0.4263,-0.0146,6.0273,-5.7810,2.4938,0.7824,-0.5508,-3.3033,
1.664293,-0.2870,-0.4268,-0.0452,6.0273,-5.7810,2.4938,0.7824,-0.5508,-3.3033,
1.665530,-0.3208,-0.4248,-0.0772,6.0273,-5.7810,2.4938,0.7824,-0.5508,-3.3033,
1.668274,-0.3550,-0.4209,-0.1065,6.0273,-5.7810,2.4938,0.7824,-0.5508,-3.3033,
1.670290,-0.3550,-0.4209,-0.1065,6.0273,-5.7810,2.4938,1.1935,-0.4013,-2.6060,
1.670785,-0.3877,-0.4170,-0.1380,6.0273,-5.7810,2.4938,1.1935,-0.4013,-2.6060,
1.673068,-0.4207,-0.4107,-0.1708,6.0273,-5.7810,2.4938,1.1935,-0.4013,-2.6060,
1.675386,-0.4537,-0.4031,-0.2018,6.0273,-5.7810,2.4938,1.1935,-0.4013,-2.6060,
1.677783,-0.4832,-0.3989,-0.2331,6.0273,-5.7810,2.4938,1.1935,-0.4013,-2.6060,
1.678204,-0.4832,-0.3989,-0.2331,-0.9435,-9.7982,1.8987,1.1935,-0.4013,-2.6060,
1.681813,-0.5086,-0.3928,-0.2648,-0.9435,-9.7982,1.8987,1.1935,-0.4013,-2.6060,
1.682551,-0.5333,-0.3838,-0.2985,-0.9435,-9.7982,1.8987,1.1935,-0.4013,-2.6060,
1.684934,-0.5541,-0.3774,-0.3308,-0.9435,-9.7982,1.8987,1.1935,-0.4013,-2.6060,
1.687302,-0.5731,-0.3701,-0.3635,-0.9435,-9.7982,1.8987,1.1935,-0.4013,-2.6060,
1.690054,-0.5883,-0.3633,-0.3928,-0.9435,-9.7982,1.8987,1.1935,-0.4013,-2.6060,
1.692393,-0.6017,-0.3572,-0.4212,-0.9435,-9.7982,1.8987,1.1935,-0.4013,-2.6060,
1.694591,-0.6137,-0.3493,-0.4517,-0.9435,-9.7982,1.8987,1.1935,-0.4013,-2.6060,
1.698359,-0.6230,-0.3442,-0.4786,-0.9435,-9.7982,1.8987,1.1935,-0.4013,-2.6060,
1.700028,-0.6303,-0.3401,-0.5047,-0.9435,-9.7982,1.8987,1.1935,-0.4013,-2.6060,
1.702422,-0.6347,-0.3335,-0.5289,-0.9435,-9.7982,1.8987,1.1935,-0.4013,-2.6060,
1.704527,-0.6369,-0.3227,-0.5531,-0.9435,-9.7982,1.8987,1.1935,-0.4013,-2.6060,
1.706952,-0.6386,-0.3080,-0.5731,-0.9435,-9.7982,1.8987,1.1935,-0.4013,-2.6060,
1.709418,-0.6410,-0.2929,-0.5912,-0.9435,-9.7982,1.8987,1.1935,-0.4013,-2.6060,
1.711724,-0.6408,-0.2765,-0.6071,-0.9435,-9.7982,1.8987,1.1935,-0.4013,-2.6060,
1.715356,-0.6364,-0.2607,-0.6200,-0.9435,-9.7982,1.8987,1.1935,-0.4013,-2.6060,
1.717728,-0.6291,-0.2482,-0.6278,-0.9435,-9.7982,1.8987,1.1935,-0.4013,-2.6060,
1.718913,-0.6166,-0.2409,-0.6347,-0.9435,-9.7982,1.8987,1.1935,-0.4013,-2.6060,
1.721513,-0.6000,-0.2353,-0.6400,-0.9435,-9.7982,1.8987,1.1935,-0.4013,-2.6060,
1.724316,-0.5812,-0.2318,-0.6425,-0.9435,-9.7982,1.8987,1.1935,-0.4013,-2.6060,
1.726462,-0.5634,-0.2267,-0.6466,-0.9435,-9.7982,1.8987,1.1935,-0.4013,-2.6060,
1.728632,-0.5446,-0.2252,-0.6505,-0.9435,-9.7982,1.8987,1.1935,-0.4013,-2.6060,
1.732264,-0.5247,-0.2218,-0.6527,-0.9435,-9.7982,1.8987,1.1935,-0.4013,-2.6060,
1.733668,-0.5059,-0.2216,-0.6540,-0.9435,-9.7982,1.8987,1.1935,-0.4013,-2.6060,
1.736096,-0.4908,-0.2228,-0.6547,-0.9435,-9.7982,1.8987,1.1935,-0.4013,-2.6060,
1.738903,-0.4908,-0.2228,-0.6547,-0.9435,-9.7982,1.8987,1.0324,-0.3202,-1.1062,
1.739735,-0.4786,-0.2255,-0.6545,-0.9435,-9.7982,1.8987,1.0324,-0.3202,-1.1062,
1.741408,-0.4705,-0.2294,-0.6532,-0.9435,-9.7982,1.8987,1.0324,-0.3202,-1.1062,
1.743424,-0.4659,-0.2289,-0.6520,-0.9435,-9.7982,1.8987,1.0324,-0.3202,-1.1062,
1.745860,-0.4612,-0.2291,-0.6537,-0.9435,-9.7982,1.8987,1.0324,-0.3202,-1.1062,
1.746214,-0.4612,-0.2291,-0.6537,-8.0103,-11.4787,0.1249,1.0324,-0.3202,-1.1062,
1.750948,-0.4573,-0.2272,-0.6547,-8.0103,-11.4787,0.1249,1.0324,-0.3202,-1.1062,
1.751416,-0.4551,-0.2260,-0.6562,-8.0103,-11.4787,0.1249,1.0324,-0.3202,-1.1062,
1.753045,-0.4522,-0.2257,-0.6606,-8.0103,-11.4787,0.1249,1.0324,-0.3202,-1.1062,
1.755461,-0.4532,-0.2230,-0.6669,-8.0103,-11.4787,0.1249,1.0324,-0.3202,-1.1062,
1.758066,-0.4541,-0.2208,-0.6708,-8.0103,-11.4787,0.1249,1.0324,-0.3202,-1.1062,
1.760554,-0.4571,-0.2208,-0.6787,-8.0103,-11.4787,0.1249,1.0324,-0.3202,-1.1062,
1.762892,-0.4605,-0.2174,-0.6867,-8.0103,-11.4787,0.1249,1.0324,-0.3202,-1.1062,
1.765308,-0.4639,-0.2143,-0.6962,-8.0103,-11.4787,0.1249,1.0324,-0.3202,-1.1062,
1.767722,-0.4690,-0.2135,-0.7055,-8.0103,-11.4787,0.1249,1.0324,-0.3202,-1.1062,
1.770157,-0.4761,-0.2128,-0.7153,-8.0103,-11.4787,0.1249,1.0324,-0.3202,-1.1062,
1.772562,-0.4852,-0.2089,-0.7256,-8.0103,-11.4787,0.1249,1.0324,-0.3202,-1.1062,
1.775208,-0.4915,-0.2042,-0.7351,-8.0103,-11.4787,0.1249,1.0324,-0.3202,-1.1062,
1.777551,-0.4991,-0.1957,-0.7449,-8.0103,-11.4787,0.1249,1.0324,-0.3202,-1.1062,
1.780327,-0.5030,-0.1871,-0.7546,-8.0103,-11.4787,0.1249,1.0324,-0.3202,-1.1062,
1.782871,-0.5064,-0.1778,-0.7612,-8.0103,-11.4787,0.1249,1.0324,-0.3202,-1.1062,
1.785167,-0.5064,-0.1664,-0.7646,-8.0103,-11.4787,0.1249,1.0324,-0.3202,-1.1062,
1.787372,-0.5033,-0.1566,-0.7671,-8.0103,-11.4787,0.1249,1.0324,-0.3202,-1.1062,
1.791768,-0.4954,-0.1463,-0.7666,-8.0103,-11.4787,0.1249,1.0324,-0.3202,-1.1062,
1.792265,-0.4854,-0.1373,-0.7651,-8.0103,-11.4787,0.1249,1.0324,-0.3202,-1.1062,
1.794684,-0.4749,-0.1285,-0.7619,-8.0103,-11.4787,0.1249,1.0324,-0.3202,-1.1062,
1.797397,-0.4590,-0.1212,-0.7585,-8.0103,-11.4787,0.1249,1.0324,-0.3202,-1.1062,
1.799953,-0.4432,-0.1138,-0.7563,-8.0103,-11.4787,0.1249,1.0324,-0.3202,-1.1062,
1.802077,-0.4265,-0.1051,-0.7541,-8.0103,-11.4787,0.1249,1.0324,-0.3202,-1.1062,
1.804370,-0.4053,-0.0992,-0.7539,-8.0103,-11.4787,0.1249,1.0324,-0.3202,-1.1062,
1.807150,-0.4053,-0.0992,-0.7539,-8.0103,-11.4787,0.1249,-0.3474,-0.1613,0.0846,
1.807879,-0.3801,-0.0911,-0.7529,-8.0103,-11.4787,0.1249,-0.3474,-0.1613,0.0846,
1.809551,-0.3515,-0.0830,-0.7532,-8.0103,-11.4787,0.1249,-0.3474,-0.1613,0.0846,
1.812878,-0.3210,-0.0767,-0.7529,-8.0103,-11.4787,0.1249,-0.3474,-0.1613,0.0846,
1.824666,-0.2890,-0.0704,-0.7536,-8.0103,-11.4787,0.1249,-0.3474,-0.1613,0.0846,
1.825275,-0.2890,-0.0704,-0.7536,-12.1291,-10.2956,-5.5496,-0.3474,-0.1613,0.0846,
1.825773,-0.2572,-0.0674,-0.7568,-12.1291,-10.2956,-5.5496,-0.3474,-0.1613,0.0846,
1.826486,-0.2250,-0.0657,-0.7612,-12.1291,-10.2956,-5.5496,-0.3474,-0.1613,0.0846,
1.826890,-0.1908,-0.0652,-0.7671,-12.1291,-10.2956,-5.5496,-0.3474,-0.1613,0.0846,
1.827281,-0.1586,-0.0667,-0.7744,-12.1291,-10.2956,-5.5496,-0.3474,-0.1613,0.0846,
1.827881,-0.1241,-0.0689,-0.7832,-12.1291,-10.2956,-5.5496,-0.3474,-0.1613,0.0846,
1.828759,-0.0928,-0.0730,-0.7954,-12.1291,-10.2956,-5.5496,-0.3474,-0.1613,0.0846,
1.831021,-0.0603,-0.0755,-0.8084,-12.1291,-10.2956,-5.5496,-0.3474,-0.1613,0.0846,
1.836435,-0.0293,-0.0760,-0.8255,-12.1291,-10.2956,-5.5496,-0.3474,-0.1613,0.0846,
1.837081,-0.0012,-0.0755,-0.8409,-12.1291,-10.2956,-5.5496,-0.3474,-0.1613,0.0846,
1.838654,0.0249,-0.0765,-0.8550,-12.1291,-10.2956,-5.5496,-0.3474,-0.1613,0.0846,
1.842323,0.0494,-0.0760,-0.8699,-12.1291,-10.2956,-5.5496,-0.3474,-0.1613,0.0846,
1.843959,0.0711,-0.0760,-0.8865,-12.1291,-10.2956,-5.5496,-0.3474,-0.1613,0.0846,
1.846019,0.0960,-0.0750,-0.9037,-12.1291,-10.2956,-5.5496,-0.3474,-0.1613,0.0846,
1.848993,0.1173,-0.0782,-0.9193,-12.1291,-10.2956,-5.5496,-0.3474,-0.1613,0.0846,
1.851144,0.1419,-0.0882,-0.9352,-12.1291,-10.2956,-5.5496,-0.3474,-0.1613,0.0846,
1.853513,0.1649,-0.0950,-0.9481,-12.1291,-10.2956,-5.5496,-0.3474,-0.1613,0.0846,
1.855669,0.1905,-0.1058,-0.9625,-12.1291,-10.2956,-5.5496,-0.3474,-0.1613,0.0846,
1.858508,0.2172,-0.1173,-0.9747,-12.1291,-10.2956,-5.5496,-0.3474,-0.1613,0.0846,
1.860725,0.2458,-0.1273,-0.9823,-12.1291,-10.2956,-5.5496,-0.3474,-0.1613,0.0846,
1.863023,0.2709,-0.1380,-0.9916,-12.1291,-10.2956,-5.5496,-0.3474,-0.1613,0.0846,
1.865496,0.2958,-0.1498,-0.9992,-12.1291,-10.2956,-5.5496,-0.3474,-0.1613,0.0846,
1.868162,0.3181,-0.1600,-1.0043,-12.1291,-10.2956,-5.5496,-0.3474,-0.1613,0.0846,
1.870302,0.3354,-0.1742,-1.0065,-12.1291,-10.2956,-5.5496,-0.3474,-0.1613,0.0846,
1.872418,0.3467,-0.1881,-1.0082,-12.1291,-10.2956,-5.5496,-0.3474,-0.1613,0.0846,
1.875487,0.3467,-0.1881,-1.0082,-12.1291,-10.2956,-5.5496,-1.0936,-0.0961,0.9113,
1.876063,0.3510,-0.1984,-1.0058,-12.1291,-10.2956,-5.5496,-1.0936,-0.0961,0.9113,
1.877800,0.3520,-0.2094,-0.9972,-12.1291,-10.2956,-5.5496,-1.0936,-0.0961,0.9113,
1.880141,0.3469,-0.2179,-0.9857,-12.1291,-10.2956,-5.5496,-1.0936,-0.0961,0.9113,
1.882244,0.3398,-0.2252,-0.9718,-12.1291,-10.2956,-5.5496,-1.0936,-0.0961,0.9113,
1.883011,0.3398,-0.2252,-0.9718,-10.6544,-8.6452,-7.1483,-1.0936,-0.0961,0.9113,
1.887321,0.3315,-0.2326,-0.9555,-10.6544,-8.6452,-7.1483,-1.0936,-0.0961,0.9113,
1.888109,0.3230,-0.2423,-0.9366,-10.6544,-8.6452,-7.1483,-1.0936,-0.0961,0.9113,
1.889571,0.3124,-0.2541,-0.9142,-10.6544,-8.6452,-7.1483,-1.0936,-0.0961,0.9113,
1.893081,0.3019,-0.2646,-0.8883,-10.6544,-8.6452,-7.1483,-1.0936,-0.0961,0.9113,
1.894812,0.2944,-0.2770,-0.8602,-10.6544,-8.6452,-7.1483,-1.0936,-0.0961,0.9113,
1.897424,0.2812,-0.2895,-0.8326,-10.6544,-8.6452,-7.1483,-1.0936,-0.0961,0.9113,
1.899301,0.2700,-0.3027,-0.8045,-10.6544,-8.6452,-7.1483,-1.0936,-0.0961,0.9113,
1.902093,0.2580,-0.3166,-0.7766,-10.6544,-8.6452,-7.1483,-1.0936,-0.0961,0.9113,
1.904651,0.2443,-0.3242,-0.7473,-10.6544,-8.6452,-7.1483,-1.0936,-0.0961,0.9113,
1.907148,0.2299,-0.3291,-0.7133,-10.6544,-8.6452,-7.1483,-1.0936,-0.0961,0.9113,
1.910340,0.2172,-0.3303,-0.6765,-10.6544,-8.6452,-7.1483,-1.0936,-0.0961,0.9113,
1.912083,0.2055,-0.3308,-0.6369,-10.6544,-8.6452,-7.1483,-1.0936,-0.0961,0.9113,
1.914058,0.1971,-0.3330,-0.5941,-10.6544,-8.6452,-7.1483,-1.0936,-0.0961,0.9113,
1.919039,0.1935,-0.3293,-0.5470,-10.6544,-8.6452,-7.1483,-1.0936,-0.0961,0.9113,
1.920021,0.1927,-0.3281,-0.5006,-10.6544,-8.6452,-7.1483,-1.0936,-0.0961,0.9113,
1.922263,0.1957,-0.3296,-0.4522,-10.6544,-8.6452,-7.1483,-1.0936,-0.0961,0.9113,
1.927297,0.2006,-0.3384,-0.3997,-10.6544,-8.6452,-7.1483,-1.0936,-0.0961,0.9113,
1.928478,0.2072,-0.3520,-0.3442,-10.6544,-8.6452,-7.1483,-1.0936,-0.0961,0.9113,
1.929153,0.2140,-0.3659,-0.2846,-10.6544,-8.6452,-7.1483,-1.0936,-0.0961,0.9113,
1.931184,0.2252,-0.3811,-0.2182,-10.6544,-8.6452,-7.1483,-1.0936,-0.0961,0.9113,
1.934347,0.2421,-0.3938,-0.1481,-10.6544,-8.6452,-7.1483,-1.0936,-0.0961,0.9113,
1.936790,0.2626,-0.4046,-0.0789,-10.6544,-8.6452,-7.1483,-1.0936,-0.0961,0.9113,
1.938752,0.2905,-0.4165,-0.0120,-10.6544,-8.6452,-7.1483,-1.0936,-0.0961,0.9113,
1.941271,0.3217,-0.4251,0.0484,-10.6544,-8.6452,-7.1483,-1.0936,-0.0961,0.9113,
1.943656,0.3217,-0.4251,0.0484,-10.6544,-8.6452,-7.1483,-2.8064,0.8696,0.9868,
1.944517,0.3496,-0.4329,0.1087,-10.6544,-8.6452,-7.1483,-2.8064,0.8696,0.9868,
1.945776,0.3770,-0.4349,0.1627,-10.6544,-8.6452,-7.1483,-2.8064,0.8696,0.9868,
1.948503,0.4009,-0.4319,0.2118,-10.6544,-8.6452,-7.1483,-2.8064,0.8696,0.9868,
1.950901,0.4216,-0.4246,0.2553,-10.6544,-8.6452,-7.1483,-2.8064,0.8696,0.9868,
1.951785,0.4216,-0.4246,0.2553,-5.3447,-7.4246,-9.1800,-2.8064,0.8696,0.9868,
1.956390,0.4363,-0.4114,0.2939,-5.3447,-7.4246,-9.1800,-2.8064,0.8696,0.9868,
1.957085,0.4485,-0.3992,0.3269,-5.3447,-7.4246,-9.1800,-2.8064,0.8696,0.9868,
1.958133,0.4607,-0.3836,0.3547,-5.3447,-7.4246,-9.1800,-2.8064,0.8696,0.9868,
1.960904,0.4788,-0.3662,0.3787,-5.3447,-7.4246,-9.1800,-2.8064,0.8696,0.9868,
1.962771,0.5020,-0.3496,0.3950,-5.3447,-7.4246,-9.1800,-2.8064,0.8696,0.9868,
1.965283,0.5301,-0.3342,0.4050,-5.3447,-7.4246,-9.1800,-2.8064,0.8696,0.9868,
1.969002,0.5699,-0.3183,0.4097,-5.3447,-7.4246,-9.1800,-2.8064,0.8696,0.9868,
1.970001,0.6161,-0.2968,0.4124,-5.3447,-7.4246,-9.1800,-2.8064,0.8696,0.9868,
1.972450,0.6662,-0.2758,0.4148,-5.3447,-7.4246,-9.1800,-2.8064,0.8696,0.9868,
1.974769,0.7187,-0.2565,0.4177,-5.3447,-7.4246,-9.1800,-2.8064,0.8696,0.9868,
1.977385,0.7729,-0.2396,0.4229,-5.3447,-7.4246,-9.1800,-2.8064,0.8696,0.9868,
1.980174,0.8247,-0.2221,0.4273,-5.3447,-7.4246,-9.1800,-2.8064,0.8696,0.9868,
1.982169,0.8790,-0.2111,0.4346,-5.3447,-7.4246,-9.1800,-2.8064,0.8696,0.9868,
1.985576,0.9327,-0.1991,0.4454,-5.3447,-7.4246,-9.1800,-2.8064,0.8696,0.9868,
1.987100,0.9826,-0.1903,0.4546,-5.3447,-7.4246,-9.1800,-2.8064,0.8696,0.9868,
1.990047,1.0270,-0.1844,0.4671,-5.3447,-7.4246,-9.1800,-2.8064,0.8696,0.9868,
1.992206,1.0722,-0.1737,0.4805,-5.3447,-7.4246,-9.1800,-2.8064,0.8696,0.9868,
1.994405,1.1145,-0.1647,0.4932,-5.3447,-7.4246,-9.1800,-2.8064,0.8696,0.9868,
1.997453,1.1543,-0.1551,0.5094,-5.3447,-7.4246,-9.1800,-2.8064,0.8696,0.9868,
1.999216,1.1946,-0.1507,0.5313,-5.3447,-7.4246,-9.1800,-2.8064,0.8696,0.9868,
2.002011,1.2305,-0.1454,0.5531,-5.3447,-7.4246,-9.1800,-2.8064,0.8696,0.9868,
2.004277,1.2674,-0.1414,0.5790,-5.3447,-7.4246,-9.1800,-2.8064,0.8696,0.9868,
2.006499,1.3097,-0.1419,0.6137,-5.3447,-7.4246,-9.1800,-2.8064,0.8696,0.9868,
2.008867,1.3563,-0.1468,0.6515,-5.3447,-7.4246,-9.1800,-2.8064,0.8696,0.9868,
2.011545,1.3563,-0.1468,0.6515,-5.3447,-7.4246,-9.1800,-2.6837,-0.6996,2.3115,
2.011970,1.3974,-0.1517,0.6921,-5.3447,-7.4246,-9.1800,-2.6837,-0.6996,2.3115,
2.014000,1.4333,-0.1520,0.7346,-5.3447,-7.4246,-9.1800,-2.6837,-0.6996,2.3115,
2.017150,1.4531,-0.1520,0.7739,-5.3447,-7.4246,-9.1800,-2.6837,-0.6996,2.3115,
2.019004,1.4697,-0.1522,0.8135,-5.3447,-7.4246,-9.1800,-2.6837,-0.6996,2.3115,
2.019322,1.4697,-0.1522,0.8135,-4.0547,-8.6119,-6.0071,-2.6837,-0.6996,2.3115,
2.021309,1.4782,-0.1495,0.8511,-4.0547,-8.6119,-6.0071,-2.6837,-0.6996,2.3115,
2.023711,1.4812,-0.1434,0.8919,-4.0547,-8.6119,-6.0071,-2.6837,-0.6996,2.3115,
2.026101,1.4790,-0.1351,0.9364,-4.0547,-8.6119,-6.0071,-2.6837,-0.6996,2.3115,
2.028730,1.4726,-0.1217,0.9806,-4.0547,-8.6119,-6.0071,-2.6837,-0.6996,2.3115,
2.030864,1.4609,-0.1065,1.0236,-4.0547,-8.6119,-6.0071,-2.6837,-0.6996,2.3115,
2.033525,1.4455,-0.0882,1.0629,-4.0547,-8.6119,-6.0071,-2.6837,-0.6996,2.3115,
2.036570,1.4291,-0.0696,1.1020,-4.0547,-8.6119,-6.0071,-2.6837,-0.6996,2.3115,
2.038354,1.4101,-0.0540,1.1387,-4.0547,-8.6119,-6.0071,-2.6837,-0.6996,2.3115,
2.040664,1.3915,-0.0398,1.1743,-4.0547,-8.6119,-6.0071,-2.6837,-0.6996,2.3115,
2.043107,1.3783,-0.0259,1.2076,-4.0547,-8.6119,-6.0071,-2.6837,-0.6996,2.3115,
2.045807,1.3710,-0.0166,1.2405,-4.0547,-8.6119,-6.0071,-2.6837,-0.6996,2.3115,
2.057055,1.3651,-0.0071,1.2759,-4.0547,-8.6119,-6.0071,-2.6837,-0.6996,2.3115,
2.057804,1.3605,0.0037,1.3136,-4.0547,-8.6119,-6.0071,-2.6837,-0.6996,2.3115,
2.058414,1.3627,0.0176,1.3537,-4.0547,-8.6119,-6.0071,-2.6837,-0.6996,2.3115,
2.059051,1.3751,0.0342,1.3905,-4.0547,-8.6119,-6.0071,-2.6837,-0.6996,2.3115,
2.059796,1.3915,0.0467,1.4228,-4.0547,-8.6119,-6.0071,-2.6837,-0.6996,2.3115,
2.060372,1.4062,0.0638,1.4521,-4.0547,-8.6119,-6.0071,-2.6837,-0.6996,2.3115,
2.062726,1.4260,0.0804,1.4799,-4.0547,-8.6119,-6.0071,-2.6837,-0.6996,2.3115,
2.065133,1.4553,0.0963,1.5112,-4.0547,-8.6119,-6.0071,-2.6837,-0.6996,2.3115,
2.067733,1.4897,0.1126,1.5305,-4.0547,-8.6119,-6.0071,-2.6837,-0.6996,2.3115,
2.070401,1.5266,0.1251,1.5557,-4.0547,-8.6119,-6.0071,-2.6837,-0.6996,2.3115,
2.073092,1.5642,0.1361,1.5628,-4.0547,-8.6119,-6.0071,-2.6837,-0.6996,2.3115,
2.074925,1.6014,0.1495,1.5662,-4.0547,-8.6119,-6.0071,-2.6837,-0.6996,2.3115,
2.077490,1.6395,0.1659,1.5640,-4.0547,-8.6119,-6.0071,-2.6837,-0.6996,2.3115,
2.080215,1.6395,0.1659,1.5640,-4.0547,-8.6119,-6.0071,-2.8711,-0.8324,2.2772,
2.080959,1.6751,0.1781,1.5593,-4.0547,-8.6119,-6.0071,-2.8711,-0.8324,2.2772,
2.082301,1.7091,0.1964,1.5532,-4.0547,-8.6119,-6.0071,-2.8711,-0.8324,2.2772,
2.084472,1.7394,0.2182,1.5437,-4.0547,-8.6119,-6.0071,-2.8711,-0.8324,2.2772,
2.087067,1.7394,0.2182,1.5437,1.5867,-5.7763,2.7511,-2.8711,-0.8324,2.2772,
2.087555,1.7692,0.2409,1.5339,1.5867,-5.7763,2.7511,-2.8711,-0.8324,2.2772,
2.089622,1.7980,0.2617,1.5208,1.5867,-5.7763,2.7511,-2.8711,-0.8324,2.2772,
2.091963,1.8264,0.2809,1.5063,1.5867,-5.7763,2.7511,-2.8711,-0.8324,2.2772,
2.094404,1.8522,0.2993,1.4892,1.5867,-5.7763,2.7511,-2.8711,-0.8324,2.2772,
2.097955,1.8799,0.3161,1.4692,1.5867,-5.7763,2.7511,-2.8711,-0.8324,2.2772,
2.099248,1.9065,0.3298,1.4470,1.5867,-5.7763,2.7511,-2.8711,-0.8324,2.2772,
2.101861,1.9263,0.3391,1.4211,1.5867,-5.7763,2.7511,-2.8711,-0.8324,2.2772,
2.104143,1.9424,0.3437,1.3939,1.5867,-5.7763,2.7511,-2.8711,-0.8324,2.2772,
2.106717,1.9539,0.3486,1.3659,1.5867,-5.7763,2.7511,-2.8711,-0.8324,2.2772,
2.108961,1.9583,0.3542,1.3390,1.5867,-5.7763,2.7511,-2.8711,-0.8324,2.2772,
2.111232,1.9553,0.3562,1.3099,1.5867,-5.7763,2.7511,-2.8711,-0.8324,2.2772,
2.113699,1.9422,0.3591,1.2825,1.5867,-5.7763,2.7511,-2.8711,-0.8324,2.2772,
2.117062,1.9243,0.3650,1.2584,1.5867,-5.7763,2.7511,-2.8711,-0.8324,2.2772,
2.118451,1.8999,0.3720,1.2374,1.5867,-5.7763,2.7511,-2.8711,-0.8324,2.2772,
2.121309,1.8696,0.3816,1.2210,1.5867,-5.7763,2.7511,-2.8711,-0.8324,2.2772,
2.123788,1.8359,0.3892,1.2041,1.5867,-5.7763,2.7511,-2.8711,-0.8324,2.2772,
2.126097,1.8014,0.4019,1.1914,1.5867,-5.7763,2.7511,-2.8711,-0.8324,2.2772,
2.130063,1.7650,0.4114,1.1800,1.5867,-5.7763,2.7511,-2.8711,-0.8324,2.2772,
2.131174,1.7345,0.4226,1.1709,1.5867,-5.7763,2.7511,-2.8711,-0.8324,2.2772,
2.133599,1.7093,0.4356,1.1655,1.5867,-5.7763,2.7511,-2.8711,-0.8324,2.2772,
2.135982,1.6839,0.4471,1.1621,1.5867,-5.7763,2.7511,-2.8711,-0.8324,2.2772,
2.138175,1.6639,0.4605,1.1638,1.5867,-5.7763,2.7511,-2.8711,-0.8324,2.2772,
2.140822,1.6536,0.4749,1.1707,1.5867,-5.7763,2.7511,-2.8711,-0.8324,2.2772,
2.143066,1.6488,0.4854,1.1809,1.5867,-5.7763,2.7511,-2.8711,-0.8324,2.2772,
2.146409,1.6475,0.4969,1.1912,1.5867,-5.7763,2.7511,-2.8711,-0.8324,2.2772,
2.148287,1.6524,0.5037,1.2029,1.5867,-5.7763,2.7511,-2.8711,-0.8324,2.2772,
2.148734,1.6524,0.5037,1.2029,1.5867,-5.7763,2.7511,-1.7098,-0.6818,1.5860,
2.150569,1.6622,0.5101,1.2161,1.5867,-5.7763,2.7511,-1.7098,-0.6818,1.5860,
2.152961,1.6761,0.5133,1.2288,1.5867,-5.7763,2.7511,-1.7098,-0.6818,1.5860,
2.155493,1.6925,0.5138,1.2437,1.5867,-5.7763,2.7511,-1.7098,-0.6818,1.5860,
2.155841,1.6925,0.5138,1.2437,6.2134,-1.5344,10.3354,-1.7098,-0.6818,1.5860,
2.158171,1.7113,0.5125,1.2598,6.2134,-1.5344,10.3354,-1.7098,-0.6818,1.5860,
2.160349,1.7284,0.5111,1.2757,6.2134,-1.5344,10.3354,-1.7098,-0.6818,1.5860,
2.163329,1.7443,0.5113,1.2918,6.2134,-1.5344,10.3354,-1.7098,-0.6818,1.5860,
2.165271,1.7597,0.5142,1.3070,6.2134,-1.5344,10.3354,-1.7098,-0.6818,1.5860,
2.167657,1.7758,0.5147,1.3175,6.2134,-1.5344,10.3354,-1.7098,-0.6818,1.5860,
2.170040,1.7917,0.5162,1.3241,6.2134,-1.5344,10.3354,-1.7098,-0.6818,1.5860,
2.172292,1.8058,0.5191,1.3282,6.2134,-1.5344,10.3354,-1.7098,-0.6818,1.5860,
2.174842,1.8176,0.5221,1.3290,6.2134,-1.5344,10.3354,-1.7098,-0.6818,1.5860,
2.177467,1.8237,0.5233,1.3253,6.2134,-1.5344,10.3354,-1.7098,-0.6818,1.5860,
2.180195,1.8271,0.5233,1.3226,6.2134,-1.5344,10.3354,-1.7098,-0.6818,1.5860,
2.182044,1.8303,0.5203,1.3175,6.2134,-1.5344,10.3354,-1.7098,-0.6818,1.5860,
2.184343,1.8317,0.5169,1.3102,6.2134,-1.5344,10.3354,-1.7098,-0.6818,1.5860,
2.186976,1.8266,0.5140,1.3038,6.2134,-1.5344,10.3354,-1.7098,-0.6818,1.5860,
2.189302,1.8178,0.5089,1.2958,6.2134,-1.5344,10.3354,-1.7098,-0.6818,1.5860,
2.191876,1.8063,0.4996,1.2872,6.2134,-1.5344,10.3354,-1.7098,-0.6818,1.5860,
2.194717,1.7892,0.4888,1.2777,6.2134,-1.5344,10.3354,-1.7098,-0.6818,1.5860,
2.197378,1.7699,0.4771,1.2696,6.2134,-1.5344,10.3354,-1.7098,-0.6818,1.5860,
2.199085,1.7477,0.4639,1.2598,6.2134,-1.5344,10.3354,-1.7098,-0.6818,1.5860,
2.201548,1.7174,0.4493,1.2491,6.2134,-1.5344,10.3354,-1.7098,-0.6818,1.5860,
2.203998,1.6825,0.4327,1.2396,6.2134,-1.5344,10.3354,-1.7098,-0.6818,1.5860,
2.206361,1.6475,0.4207,1.2268,6.2134,-1.5344,10.3354,-1.7098,-0.6818,1.5860,
2.209493,1.6097,0.4060,1.2137,6.2134,-1.5344,10.3354,-1.7098,-0.6818,1.5860,
2.211225,1.5735,0.3953,1.1992,6.2134,-1.5344,10.3354,-1.7098,-0.6818,1.5860,
2.213968,1.5339,0.3838,1.1807,6.2134,-1.5344,10.3354,-1.7098,-0.6818,1.5860,
2.217553,1.4987,0.3713,1.1597,6.2134,-1.5344,10.3354,-1.7098,-0.6818,1.5860,
2.218163,1.4987,0.3713,1.1597,6.2134,-1.5344,10.3354,-1.2638,0.0490,0.6056,
2.218646,1.4641,0.3625,1.1382,6.2134,-1.5344,10.3354,-1.2638,0.0490,0.6056,
2.222620,1.4289,0.3576,1.1154,6.2134,-1.5344,10.3354,-1.2638,0.0490,0.6056,
2.223696,1.3959,0.3520,1.0915,6.2134,-1.5344,10.3354,-1.2638,0.0490,0.6056,
2.224112,1.3959,0.3520,1.0915,8.7869,3.0640,9.8720,-1.2638,0.0490,0.6056,
2.226572,1.3639,0.3474,1.0673,8.7869,3.0640,9.8720,-1.2638,0.0490,0.6056,
2.228512,1.3373,0.3442,1.0434,8.7869,3.0640,9.8720,-1.2638,0.0490,0.6056,
2.231589,1.3111,0.3410,1.0226,8.7869,3.0640,9.8720,-1.2638,0.0490,0.6056,
2.233384,1.2909,0.3386,1.0014,8.7869,3.0640,9.8720,-1.2638,0.0490,0.6056,
2.235959,1.2745,0.3352,0.9794,8.7869,3.0640,9.8720,-1.2638,0.0490,0.6056,
2.238364,1.2618,0.3325,0.9596,8.7869,3.0640,9.8720,-1.2638,0.0490,0.6056,
2.240575,1.2496,0.3305,0.9408,8.7869,3.0640,9.8720,-1.2638,0.0490,0.6056,
2.243482,1.2410,0.3305,0.9195,8.7869,3.0640,9.8720,-1.2638,0.0490,0.6056,
2.245505,1.2359,0.3301,0.8978,8.7869,3.0640,9.8720,-1.2638,0.0490,0.6056,
2.247980,1.2332,0.3301,0.8758,8.7869,3.0640,9.8720,-1.2638,0.0490,0.6056,
2.250411,1.2330,0.3310,0.8548,8.7869,3.0640,9.8720,-1.2638,0.0490,0.6056,
2.252658,1.2342,0.3296,0.8338,8.7869,3.0640,9.8720,-1.2638,0.0490,0.6056,
2.256695,1.2383,0.3283,0.8111,8.7869,3.0640,9.8720,-1.2638,0.0490,0.6056,
2.258268,1.2454,0.3291,0.7923,8.7869,3.0640,9.8720,-1.2638,0.0490,0.6056,
2.260406,1.2545,0.3264,0.7732,8.7869,3.0640,9.8720,-1.2638,0.0490,0.6056,
2.262523,1.2645,0.3239,0.7578,8.7869,3.0640,9.8720,-1.2638,0.0490,0.6056,
2.265163,1.2738,0.3222,0.7390,8.7869,3.0640,9.8720,-1.2638,0.0490,0.6056,
2.267947,1.2799,0.3215,0.7207,8.7869,3.0640,9.8720,-1.2638,0.0490,0.6056,
2.269749,1.2852,0.3198,0.7031,8.7869,3.0640,9.8720,-1.2638,0.0490,0.6056,
2.273160,1.2838,0.3166,0.6870,8.7869,3.0640,9.8720,-1.2638,0.0490,0.6056,
2.274799,1.2823,0.3152,0.6713,8.7869,3.0640,9.8720,-1.2638,0.0490,0.6056,
2.277463,1.2772,0.3100,0.6552,8.7869,3.0640,9.8720,-1.2638,0.0490,0.6056,
2.279694,1.2696,0.3022,0.6425,8.7869,3.0640,9.8720,-1.2638,0.0490,0.6056,
2.281947,1.2608,0.2966,0.6325,8.7869,3.0640,9.8720,-1.2638,0.0490,0.6056,
2.284724,1.2608,0.2966,0.6325,8.7869,3.0640,9.8720,-0.1474,0.2160,-0.0471,
2.285622,1.2486,0.2919,0.6239,8.7869,3.0640,9.8720,-0.1474,0.2160,-0.0471,
2.286871,1.2354,0.2866,0.6149,8.7869,3.0640,9.8720,-0.1474,0.2160,-0.0471,
2.290333,1.2183,0.2792,0.6090,8.7869,3.0640,9.8720,-0.1474,0.2160,-0.0471,
2.291730,1.2041,0.2709,0.6037,8.7869,3.0640,9.8720,-0.1474,0.2160,-0.0471,
2.292018,1.2041,0.2709,0.6037,7.6019,4.0745,9.1975,-0.1474,0.2160,-0.0471,
2.294615,1.1885,0.2609,0.5992,7.6019,4.0745,9.1975,-0.1474,0.2160,-0.0471,
2.298944,1.1743,0.2506,0.5944,7.6019,4.0745,9.1975,-0.1474,0.2160,-0.0471,
2.299276,1.1575,0.2406,0.5909,7.6019,4.0745,9.1975,-0.1474,0.2160,-0.0471,
2.301544,1.1406,0.2304,0.5870,7.6019,4.0745,9.1975,-0.1474,0.2160,-0.0471,
2.304319,1.1233,0.2204,0.5831,7.6019,4.0745,9.1975,-0.1474,0.2160,-0.0471,
2.307063,1.1054,0.2096,0.5787,7.6019,4.0745,9.1975,-0.1474,0.2160,-0.0471,
2.309171,1.0864,0.1966,0.5763,7.6019,4.0745,9.1975,-0.1474,0.2160,-0.0471,
2.312259,1.0661,0.1876,0.5717,7.6019,4.0745,9.1975,-0.1474,0.2160,-0.0471,
2.324513,1.0466,0.1783,0.5663,7.6019,4.0745,9.1975,-0.1474,0.2160,-0.0471,
2.325598,1.0280,0.1725,0.5592,7.6019,4.0745,9.1975,-0.1474,0.2160,-0.0471,
2.326254,1.0094,0.1642,0.5541,7.6019,4.0745,9.1975,-0.1474,0.2160,-0.0471,
2.326850,0.9909,0.1603,0.5477,7.6019,4.0745,9.1975,-0.1474,0.2160,-0.0471,
2.327344,0.9764,0.1564,0.5416,7.6019,4.0745,9.1975,-0.1474,0.2160,-0.0471,
2.329058,0.9616,0.1539,0.5345,7.6019,4.0745,9.1975,-0.1474,0.2160,-0.0471,
2.329696,0.9484,0.1500,0.5267,7.6019,4.0745,9.1975,-0.1474,0.2160,-0.0471,
2.330722,0.9364,0.1476,0.5206,7.6019,4.0745,9.1975,-0.1474,0.2160,-0.0471,
2.333168,0.9261,0.1434,0.5130,7.6019,4.0745,9.1975,-0.1474,0.2160,-0.0471,
2.336190,0.9173,0.1424,0.5030,7.6019,4.0745,9.1975,-0.1474,0.2160,-0.0471,
2.338106,0.9085,0.1431,0.4935,7.6019,4.0745,9.1975,-0.1474,0.2160,-0.0471,
2.340977,0.9022,0.1387,0.4839,7.6019,4.0745,9.1975,-0.1474,0.2160,-0.0471,
2.343022,0.8976,0.1380,0.4747,7.6019,4.0745,9.1975,-0.1474,0.2160,-0.0471,
2.345316,0.8963,0.1351,0.4678,7.6019,4.0745,9.1975,-0.1474,0.2160,-0.0471,
2.347671,0.8936,0.1319,0.4607,7.6019,4.0745,9.1975,-0.1474,0.2160,-0.0471,
2.350042,0.8910,0.1285,0.4532,7.6019,4.0745,9.1975,-0.1474,0.2160,-0.0471,
2.352486,0.8910,0.1285,0.4532,7.6019,4.0745,9.1975,0.0727,0.1938,-0.2995,
2.352887,0.8893,0.1234,0.4493,7.6019,4.0745,9.1975,0.0727,0.1938,-0.2995,
2.354943,0.8873,0.1207,0.4449,7.6019,4.0745,9.1975,0.0727,0.1938,-0.2995,
2.357766,0.8865,0.1180,0.4419,7.6019,4.0745,9.1975,0.0727,0.1938,-0.2995,
2.360343,0.8865,0.1180,0.4419,3.2164,2.5231,4.4626,0.0727,0.1938,-0.2995,
2.360822,0.8834,0.1114,0.4400,3.2164,2.5231,4.4626,0.0727,0.1938,-0.2995,
2.362300,0.8799,0.1051,0.4388,3.2164,2.5231,4.4626,0.0727,0.1938,-0.2995,
2.364991,0.8738,0.0987,0.4380,3.2164,2.5231,4.4626,0.0727,0.1938,-0.2995,
2.367247,0.8687,0.0933,0.4353,3.2164,2.5231,4.4626,0.0727,0.1938,-0.2995,
2.370135,0.8616,0.0852,0.4351,3.2164,2.5231,4.4626,0.0727,0.1938,-0.2995,
2.372253,0.8553,0.0789,0.4356,3.2164,2.5231,4.4626,0.0727,0.1938,-0.2995,
2.374770,0.8472,0.0738,0.4344,3.2164,2.5231,4.4626,0.0727,0.1938,-0.2995,
2.377921,0.8367,0.0672,0.4351,3.2164,2.5231,4.4626,0.0727,0.1938,-0.2995,
2.379675,0.8284,0.0630,0.4349,3.2164,2.5231,4.4626,0.0727,0.1938,-0.2995,
2.381907,0.8208,0.0581,0.4363,3.2164,2.5231,4.4626,0.0727,0.1938,-0.2995,
2.384463,0.8157,0.0557,0.4363,3.2164,2.5231,4.4626,0.0727,0.1938,-0.2995,
2.386611,0.8106,0.0537,0.4371,3.2164,2.5231,4.4626,0.0727,0.1938,-0.2995,
2.389243,0.8076,0.0508,0.4373,3.2164,2.5231,4.4626,0.0727,0.1938,-0.2995,
2.391787,0.8057,0.0486,0.4378,3.2164,2.5231,4.4626,0.0727,0.1938,-0.2995,
2.394016,0.8072,0.0467,0.4366,3.2164,2.5231,4.4626,0.0727,0.1938,-0.2995,
2.397682,0.8086,0.0462,0.4336,3.2164,2.5231,4.4626,0.0727,0.1938,-0.2995,
2.399065,0.8115,0.0457,0.4277,3.2164,2.5231,4.4626,0.0727,0.1938,-0.2995,
2.401536,0.8137,0.0464,0.4197,3.2164,2.5231,4.4626,0.0727,0.1938,-0.2995,
2.404032,0.8162,0.0459,0.4094,3.2164,2.5231,4.4626,0.0727,0.1938,-0.2995,
2.406483,0.8174,0.0474,0.3984,3.2164,2.5231,4.4626,0.0727,0.1938,-0.2995,
2.408893,0.8220,0.0486,0.3889,3.2164,2.5231,4.4626,0.0727,0.1938,-0.2995,
2.411787,0.8264,0.0508,0.3789,3.2164,2.5231,4.4626,0.0727,0.1938,-0.2995,
2.413585,0.8314,0.0513,0.3718,3.2164,2.5231,4.4626,0.0727,0.1938,-0.2995,
2.415896,0.8362,0.0535,0.3635,3.2164,2.5231,4.4626,0.0727,0.1938,-0.2995,
2.418627,0.8416,0.0533,0.3564,3.2164,2.5231,4.4626,0.0727,0.1938,-0.2995,
2.421025,0.8416,0.0533,0.3564,3.2164,2.5231,4.4626,0.1562,-0.0120,-0.1703,
2.421513,0.8492,0.0533,0.3481,3.2164,2.5231,4.4626,0.1562,-0.0120,-0.1703,
2.423322,0.8560,0.0555,0.3418,3.2164,2.5231,4.4626,0.1562,-0.0120,-0.1703,
2.425599,0.8650,0.0545,0.3364,3.2164,2.5231,4.4626,0.1562,-0.0120,-0.1703,
2.428275,0.8719,0.0537,0.3281,3.2164,2.5231,4.4626,0.1562,-0.0120,-0.1703,
2.428572,0.8719,0.0537,0.3281,0.5629,0.7845,1.6085,0.1562,-0.0120,-0.1703,
2.431030,0.8782,0.0540,0.3232,0.5629,0.7845,1.6085,0.1562,-0.0120,-0.1703,
2.433955,0.8848,0.0540,0.3169,0.5629,0.7845,1.6085,0.1562,-0.0120,-0.1703,
2.435828,0.8919,0.0562,0.3093,0.5629,0.7845,1.6085,0.1562,-0.0120,-0.1703,
2.438100,0.8944,0.0533,0.3041,0.5629,0.7845,1.6085,0.1562,-0.0120,-0.1703,
2.440463,0.8956,0.0542,0.3002,0.5629,0.7845,1.6085,0.1562,-0.0120,-0.1703,
2.442876,0.8958,0.0533,0.2958,0.5629,0.7845,1.6085,0.1562,-0.0120,-0.1703,
2.445422,0.8946,0.0501,0.2934,0.5629,0.7845,1.6085,0.1562,-0.0120,-0.1703,
2.447695,0.8907,0.0486,0.2910,0.5629,0.7845,1.6085,0.1562,-0.0120,-0.1703,
2.450819,0.8848,0.0467,0.2895,0.5629,0.7845,1.6085,0.1562,-0.0120,-0.1703,
2.452664,0.8787,0.0445,0.2892,0.5629,0.7845,1.6085,0.1562,-0.0120,-0.1703,
2.454824,0.8729,0.0398,0.2897,0.5629,0.7845,1.6085,0.1562,-0.0120,-0.1703,
2.457574,0.8653,0.0386,0.2897,0.5629,0.7845,1.6085,0.1562,-0.0120,-0.1703,
2.460050,0.8560,0.0354,0.2907,0.5629,0.7845,1.6085,0.1562,-0.0120,-0.1703,
2.462504,0.8460,0.0374,0.2917,0.5629,0.7845,1.6085,0.1562,-0.0120,-0.1703,
2.464814,0.8387,0.0398,0.2934,0.5629,0.7845,1.6085,0.1562,-0.0120,-0.1703,
2.468375,0.8336,0.0423,0.2980,0.5629,0.7845,1.6085,0.1562,-0.0120,-0.1703,
2.469811,0.8281,0.0423,0.3027,0.5629,0.7845,1.6085,0.1562,-0.0120,-0.1703,
2.472339,0.8235,0.0428,0.3066,0.5629,0.7845,1.6085,0.1562,-0.0120,-0.1703,
2.474468,0.8211,0.0440,0.3085,0.5629,0.7845,1.6085,0.1562,-0.0120,-0.1703,
2.477574,0.8194,0.0430,0.3073,0.5629,0.7845,1.6085,0.1562,-0.0120,-0.1703,
2.479414,0.8208,0.0435,0.3100,0.5629,0.7845,1.6085,0.1562,-0.0120,-0.1703,
2.481921,0.8225,0.0428,0.3098,0.5629,0.7845,1.6085,0.1562,-0.0120,-0.1703,
2.484949,0.8269,0.0420,0.3090,0.5629,0.7845,1.6085,0.1562,-0.0120,-0.1703,
2.487246,0.8323,0.0430,0.3076,0.5629,0.7845,1.6085,0.1562,-0.0120,-0.1703,
2.489274,0.8323,0.0430,0.3076,0.5629,0.7845,1.6085,0.1325,-0.0446,-0.0954,
2.489774,0.8409,0.0469,0.3066,0.5629,0.7845,1.6085,0.1325,-0.0446,-0.0954,
2.491767,0.8494,0.0498,0.3032,0.5629,0.7845,1.6085,0.1325,-0.0446,-0.0954,
2.493966,0.8589,0.0513,0.3000,0.5629,0.7845,1.6085,0.1325,-0.0446,-0.0954,
2.497787,0.8714,0.0557,0.2983,0.5629,0.7845,1.6085,0.1325,-0.0446,-0.0954,
2.498313,0.8714,0.0557,0.2983,-0.9253,-0.3813,0.4916,0.1325,-0.0446,-0.0954,
2.498877,0.8829,0.0596,0.2953,-0.9253,-0.3813,0.4916,0.1325,-0.0446,-0.0954,
2.501731,0.8958,0.0633,0.2927,-0.9253,-0.3813,0.4916,0.1325,-0.0446,-0.0954,
2.503751,0.9085,0.0684,0.2870,-0.9253,-0.3813,0.4916,0.1325,-0.0446,-0.0954,
2.505975,0.9183,0.0743,0.2807,-0.9253,-0.3813,0.4916,0.1325,-0.0446,-0.0954,
2.508625,0.9317,0.0784,0.2744,-0.9253,-0.3813,0.4916,0.1325,-0.0446,-0.0954,
2.510904,0.9442,0.0850,0.2690,-0.9253,-0.3813,0.4916,0.1325,-0.0446,-0.0954,
2.513315,0.9572,0.0916,0.2651,-0.9253,-0.3813,0.4916,0.1325,-0.0446,-0.0954,
2.515780,0.9725,0.0980,0.2592,-0.9253,-0.3813,0.4916,0.1325,-0.0446,-0.0954,
2.518454,0.9852,0.1043,0.2553,-0.9253,-0.3813,0.4916,0.1325,-0.0446,-0.0954,
2.520835,0.9952,0.1119,0.2516,-0.9253,-0.3813,0.4916,0.1325,-0.0446,-0.0954,
2.522915,1.0072,0.1190,0.2499,-0.9253,-0.3813,0.4916,0.1325,-0.0446,-0.0954,
2.525487,1.0175,0.1243,0.2482,-0.9253,-0.3813,0.4916,0.1325,-0.0446,-0.0954,
2.528416,1.0275,0.1300,0.2477,-0.9253,-0.3813,0.4916,0.1325,-0.0446,-0.0954,
2.530516,1.0400,0.1385,0.2480,-0.9253,-0.3813,0.4916,0.1325,-0.0446,-0.0954,
2.532883,1.0497,0.1422,0.2521,-0.9253,-0.3813,0.4916,0.1325,-0.0446,-0.0954,
2.536058,1.0607,0.1476,0.2553,-0.9253,-0.3813,0.4916,0.1325,-0.0446,-0.0954,
2.537841,1.0688,0.1539,0.2595,-0.9253,-0.3813,0.4916,0.1325,-0.0446,-0.0954,
2.540079,1.0786,0.1586,0.2629,-0.9253,-0.3813,0.4916,0.1325,-0.0446,-0.0954,
2.542689,1.0857,0.1629,0.2670,-0.9253,-0.3813,0.4916,0.1325,-0.0446,-0.0954,
2.545305,1.0930,0.1644,0.2709,-0.9253,-0.3813,0.4916,0.1325,-0.0446,-0.0954,
2.547646,1.1001,0.1659,0.2748,-0.9253,-0.3813,0.4916,0.1325,-0.0446,-0.0954,
2.549862,1.1081,0.1651,0.2783,-0.9253,-0.3813,0.4916,0.1325,-0.0446,-0.0954,
2.552859,1.1125,0.1642,0.2805,-0.9253,-0.3813,0.4916,0.1325,-0.0446,-0.0954,
2.554912,1.1189,0.1632,0.2841,-0.9253,-0.3813,0.4916,0.1325,-0.0446,-0.0954,
2.557164,1.1189,0.1632,0.2841,-0.9253,-0.3813,0.4916,0.1029,-0.1033,0.0584,
2.557766,1.1238,0.1627,0.2875,-0.9253,-0.3813,0.4916,0.1029,-0.1033,0.0584,
2.559872,1.1274,0.1622,0.2900,-0.9253,-0.3813,0.4916,0.1029,-0.1033,0.0584,
2.561900,1.1294,0.1634,0.2902,-0.9253,-0.3813,0.4916,0.1029,-0.1033,0.0584,
2.564427,1.1282,0.1642,0.2912,-0.9253,-0.3813,0.4916,0.1029,-0.1033,0.0584,
2.564738,1.1282,0.1642,0.2912,-0.6862,-0.5744,-0.5110,0.1029,-0.1033,0.0584,
2.567197,1.1301,0.1651,0.2941,-0.6862,-0.5744,-0.5110,0.1029,-0.1033,0.0584,
2.570585,1.1323,0.1654,0.2966,-0.6862,-0.5744,-0.5110,0.1029,-0.1033,0.0584,
2.572063,1.1350,0.1664,0.2963,-0.6862,-0.5744,-0.5110,0.1029,-0.1033,0.0584,
2.574274,1.1409,0.1698,0.2932,-0.6862,-0.5744,-0.5110,0.1029,-0.1033,0.0584,
2.577767,1.1467,0.1727,0.2932,-0.6862,-0.5744,-0.5110,0.1029,-0.1033,0.0584,
2.579180,1.1528,0.1747,0.2958,-0.6862,-0.5744,-0.5110,0.1029,-0.1033,0.0584,
2.581516,1.1621,0.1776,0.3015,-0.6862,-0.5744,-0.5110,0.1029,-0.1033,0.0584,
2.583964,1.1685,0.1815,0.3085,-0.6862,-0.5744,-0.5110,0.1029,-0.1033,0.0584,
2.586512,1.1746,0.1893,0.3152,-0.6862,-0.5744,-0.5110,0.1029,-0.1033,0.0584,
2.588887,1.1785,0.1932,0.3217,-0.6862,-0.5744,-0.5110,0.1029,-0.1033,0.0584,
2.591147,1.1812,0.1993,0.3310,-0.6862,-0.5744,-0.5110,0.1029,-0.1033,0.0584,
2.594243,1.1829,0.2062,0.3366,-0.6862,-0.5744,-0.5110,0.1029,-0.1033,0.0584,
2.597071,1.1844,0.2128,0.3432,-0.6862,-0.5744,-0.5110,0.1029,-0.1033,0.0584,
2.598508,1.1858,0.2216,0.3486,-0.6862,-0.5744,-0.5110,0.1029,-0.1033,0.0584,
2.600874,1.1880,0.2287,0.3552,-0.6862,-0.5744,-0.5110,0.1029,-0.1033,0.0584,
2.603617,1.1961,0.2387,0.3620,-0.6862,-0.5744,-0.5110,0.1029,-0.1033,0.0584,
2.605836,1.2041,0.2472,0.3689,-0.6862,-0.5744,-0.5110,0.1029,-0.1033,0.0584,
2.608293,1.2156,0.2563,0.3755,-0.6862,-0.5744,-0.5110,0.1029,-0.1033,0.0584,
2.611720,1.2290,0.2660,0.3774,-0.6862,-0.5744,-0.5110,0.1029,-0.1033,0.0584,
2.613247,1.2454,0.2717,0.3762,-0.6862,-0.5744,-0.5110,0.1029,-0.1033,0.0584,
2.615748,1.2654,0.2783,0.3748,-0.6862,-0.5744,-0.5110,0.1029,-0.1033,0.0584,
2.618052,1.2904,0.2836,0.3735,-0.6862,-0.5744,-0.5110,0.1029,-0.1033,0.0584,
2.620814,1.3175,0.2880,0.3735,-0.6862,-0.5744,-0.5110,0.1029,-0.1033,0.0584,
2.623062,1.3443,0.2917,0.3731,-0.6862,-0.5744,-0.5110,0.1029,-0.1033,0.0584,
2.625355,1.3443,0.2917,0.3731,-0.6862,-0.5744,-0.5110,-0.0426,-0.0473,-0.2602,
2.625947,1.3703,0.2993,0.3694,-0.6862,-0.5744,-0.5110,-0.0426,-0.0473,-0.2602,
2.628378,1.3952,0.3107,0.3635,-0.6862,-0.5744,-0.5110,-0.0426,-0.0473,-0.2602,
2.630227,1.4201,0.3257,0.3596,-0.6862,-0.5744,-0.5110,-0.0426,-0.0473,-0.2602,
2.632683,1.4409,0.3459,0.3562,-0.6862,-0.5744,-0.5110,-0.0426,-0.0473,-0.2602,
2.632971,1.4409,0.3459,0.3562,0.9593,0.2256,-0.7272,-0.0426,-0.0473,-0.2602,
2.634995,1.4624,0.3686,0.3540,0.9593,0.2256,-0.7272,-0.0426,-0.0473,-0.2602,
2.637681,1.4829,0.3892,0.3525,0.9593,0.2256,-0.7272,-0.0426,-0.0473,-0.2602,
2.639944,1.5009,0.4082,0.3523,0.9593,0.2256,-0.7272,-0.0426,-0.0473,-0.2602,
2.642341,1.5188,0.4238,0.3554,0.9593,0.2256,-0.7272,-0.0426,-0.0473,-0.2602,
2.644999,1.5347,0.4378,0.3572,0.9593,0.2256,-0.7272,-0.0426,-0.0473,-0.2602,
2.647329,1.5510,0.4495,0.3618,0.9593,0.2256,-0.7272,-0.0426,-0.0473,-0.2602,
2.649653,1.5649,0.4568,0.3681,0.9593,0.2256,-0.7272,-0.0426,-0.0473,-0.2602,
2.652152,1.5801,0.4661,0.3770,0.9593,0.2256,-0.7272,-0.0426,-0.0473,-0.2602,
2.654692,1.5989,0.4773,0.3879,0.9593,0.2256,-0.7272,-0.0426,-0.0473,-0.2602,
2.657236,1.6187,0.4910,0.4021,0.9593,0.2256,-0.7272,-0.0426,-0.0473,-0.2602,
2.659515,1.6417,0.5052,0.4172,0.9593,0.2256,-0.7272,-0.0426,-0.0473,-0.2602,
2.662245,1.6641,0.5218,0.4353,0.9593,0.2256,-0.7272,-0.0426,-0.0473,-0.2602,
2.664483,1.6888,0.5404,0.4559,0.9593,0.2256,-0.7272,-0.0426,-0.0473,-0.2602,
2.666780,1.7162,0.5592,0.4786,0.9593,0.2256,-0.7272,-0.0426,-0.0473,-0.2602,
2.669272,1.7435,0.5763,0.5015,0.9593,0.2256,-0.7272,-0.0426,-0.0473,-0.2602,
2.671936,1.7707,0.5934,0.5247,0.9593,0.2256,-0.7272,-0.0426,-0.0473,-0.2602,
2.674194,1.7992,0.6088,0.5446,0.9593,0.2256,-0.7272,-0.0426,-0.0473,-0.2602,
2.677355,1.8305,0.6239,0.5641,0.9593,0.2256,-0.7272,-0.0426,-0.0473,-0.2602,
2.679730,1.8633,0.6376,0.5839,0.9593,0.2256,-0.7272,-0.0426,-0.0473,-0.2602,
2.681621,1.8962,0.6471,0.6002,0.9593,0.2256,-0.7272,-0.0426,-0.0473,-0.2602,
2.683842,1.9282,0.6552,0.6129,0.9593,0.2256,-0.7272,-0.0426,-0.0473,-0.2602,
2.686241,1.9624,0.6662,0.6249,0.9593,0.2256,-0.7272,-0.0426,-0.0473,-0.2602,
2.688912,1.9952,0.6755,0.6335,0.9593,0.2256,-0.7272,-0.0426,-0.0473,-0.2602,
2.691201,2.0303,0.6831,0.6369,0.9593,0.2256,-0.7272,-0.0426,-0.0473,-0.2602,
2.693557,2.0303,0.6831,0.6369,0.9593,0.2256,-0.7272,0.1593,-0.1390,-0.5643,
2.694056,2.0616,0.6877,0.6364,0.9593,0.2256,-0.7272,0.1593,-0.1390,-0.5643,
2.697290,2.0897,0.6957,0.6315,0.9593,0.2256,-0.7272,0.1593,-0.1390,-0.5643,
2.698500,2.1154,0.7023,0.6254,0.9593,0.2256,-0.7272,0.1593,-0.1390,-0.5643,
2.701056,2.1376,0.7084,0.6200,0.9593,0.2256,-0.7272,0.1593,-0.1390,-0.5643,
2.701401,2.1376,0.7084,0.6200,2.8212,1.0432,-0.0045,0.1593,-0.1390,-0.5643,
2.703334,2.1596,0.7128,0.6151,2.8212,1.0432,-0.0045,0.1593,-0.1390,-0.5643,
2.705903,2.1774,0.7153,0.6103,2.8212,1.0432,-0.0045,0.1593,-0.1390,-0.5643,
2.708269,2.1933,0.7178,0.6068,2.8212,1.0432,-0.0045,0.1593,-0.1390,-0.5643,
2.710606,2.2099,0.7197,0.6029,2.8212,1.0432,-0.0045,0.1593,-0.1390,-0.5643,
2.713459,2.2253,0.7165,0.5995,2.8212,1.0432,-0.0045,0.1593,-0.1390,-0.5643,
2.715643,2.2375,0.7165,0.5975,2.8212,1.0432,-0.0045,0.1593,-0.1390,-0.5643,
2.717966,2.2482,0.7158,0.5988,2.8212,1.0432,-0.0045,0.1593,-0.1390,-0.5643,
2.721557,2.2534,0.7111,0.6034,2.8212,1.0432,-0.0045,0.1593,-0.1390,-0.5643,
2.723096,2.2556,0.7077,0.6093,2.8212,1.0432,-0.0045,0.1593,-0.1390,-0.5643,
2.725364,2.2565,0.7036,0.6169,2.8212,1.0432,-0.0045,0.1593,-0.1390,-0.5643,
2.727788,2.2597,0.7011,0.6288,2.8212,1.0432,-0.0045,0.1593,-0.1390,-0.5643,
2.730280,2.2585,0.6965,0.6432,2.8212,1.0432,-0.0045,0.1593,-0.1390,-0.5643,
2.732574,2.2565,0.6892,0.6579,2.8212,1.0432,-0.0045,0.1593,-0.1390,-0.5643,
2.735147,2.2551,0.6806,0.6704,2.8212,1.0432,-0.0045,0.1593,-0.1390,-0.5643,
2.738265,2.2500,0.6706,0.6821,2.8212,1.0432,-0.0045,0.1593,-0.1390,-0.5643,
2.739932,2.2417,0.6599,0.6940,2.8212,1.0432,-0.0045,0.1593,-0.1390,-0.5643,
2.742209,2.2304,0.6481,0.7045,2.8212,1.0432,-0.0045,0.1593,-0.1390,-0.5643,
2.744774,2.2182,0.6388,0.7136,2.8212,1.0432,-0.0045,0.1593,-0.1390,-0.5643,
2.747221,2.2026,0.6283,0.7236,2.8212,1.0432,-0.0045,0.1593,-0.1390,-0.5643,
2.749684,2.1874,0.6176,0.7314,2.8212,1.0432,-0.0045,0.1593,-0.1390,-0.5643,
2.752014,2.1715,0.6064,0.7385,2.8212,1.0432,-0.0045,0.1593,-0.1390,-0.5643,
2.755296,2.1540,0.5985,0.7431,2.8212,1.0432,-0.0045,0.1593,-0.1390,-0.5643,
2.757192,2.1371,0.5887,0.7458,2.8212,1.0432,-0.0045,0.1593,-0.1390,-0.5643,
2.759339,2.1210,0.5778,0.7473,2.8212,1.0432,-0.0045,0.1593,-0.1390,-0.5643,
2.761770,2.1210,0.5778,0.7473,2.8212,1.0432,-0.0045,0.2704,0.0824,-1.6597,
2.762125,2.1029,0.5643,0.7463,2.8212,1.0432,-0.0045,0.2704,0.0824,-1.6597,
2.764459,2.0877,0.5519,0.7429,2.8212,1.0432,-0.0045,0.2704,0.0824,-1.6597,
2.766813,2.0728,0.5360,0.7388,2.8212,1.0432,-0.0045,0.2704,0.0824,-1.6597,
2.769156,2.0570,0.5199,0.7329,2.8212,1.0432,-0.0045,0.2704,0.0824,-1.6597,
2.769623,2.0570,0.5199,0.7329,7.8839,3.6916,1.5607,0.2704,0.0824,-1.6597,
2.772070,2.0406,0.5050,0.7253,7.8839,3.6916,1.5607,0.2704,0.0824,-1.6597,
2.774056,2.0247,0.4903,0.7160,7.8839,3.6916,1.5607,0.2704,0.0824,-1.6597,
2.777144,2.0086,0.4759,0.7028,7.8839,3.6916,1.5607,0.2704,0.0824,-1.6597,
2.778843,1.9896,0.4644,0.6860,7.8839,3.6916,1.5607,0.2704,0.0824,-1.6597,
2.781773,1.9666,0.4537,0.6674,7.8839,3.6916,1.5607,0.2704,0.0824,-1.6597,
2.783830,1.9429,0.4439,0.6486,7.8839,3.6916,1.5607,0.2704,0.0824,-1.6597,
2.786103,1.9180,0.4356,0.6313,7.8839,3.6916,1.5607,0.2704,0.0824,-1.6597,
2.789012,1.8921,0.4275,0.6156,7.8839,3.6916,1.5607,0.2704,0.0824,-1.6597,
2.791064,1.8657,0.4199,0.6010,7.8839,3.6916,1.5607,0.2704,0.0824,-1.6597,
2.793522,1.8386,0.4146,0.5870,7.8839,3.6916,1.5607,0.2704,0.0824,-1.6597,
2.797590,1.8110,0.4075,0.5768,7.8839,3.6916,1.5607,0.2704,0.0824,-1.6597,
2.798552,1.7858,0.3994,0.5660,7.8839,3.6916,1.5607,0.2704,0.0824,-1.6597,
2.800872,1.7606,0.3879,0.5550,7.8839,3.6916,1.5607,0.2704,0.0824,-1.6597,
2.803179,1.7350,0.3779,0.5435,7.8839,3.6916,1.5607,0.2704,0.0824,-1.6597,
2.806283,1.7086,0.3686,0.5306,7.8839,3.6916,1.5607,0.2704,0.0824,-1.6597,
2.808231,1.6844,0.3603,0.5157,7.8839,3.6916,1.5607,0.2704,0.0824,-1.6597,
2.811831,1.6600,0.3501,0.5018,7.8839,3.6916,1.5607,0.2704,0.0824,-1.6597,
2.820444,1.6378,0.3384,0.4864,7.8839,3.6916,1.5607,0.2704,0.0824,-1.6597,
2.820917,1.6133,0.3259,0.4703,7.8839,3.6916,1.5607,0.2704,0.0824,-1.6597,
2.821267,1.5899,0.3127,0.4573,7.8839,3.6916,1.5607,0.2704,0.0824,-1.6597,
2.821542,1.5647,0.2990,0.4451,7.8839,3.6916,1.5607,0.2704,0.0824,-1.6597,
2.823527,1.5420,0.2858,0.4292,7.8839,3.6916,1.5607,0.2704,0.0824,-1.6597,
2.825350,1.5183,0.2734,0.4146,7.8839,3.6916,1.5607,0.2704,0.0824,-1.6597,
2.827584,1.4934,0.2614,0.4021,7.8839,3.6916,1.5607,0.2704,0.0824,-1.6597,
2.830016,1.4934,0.2614,0.4021,7.8839,3.6916,1.5607,0.7739,0.0280,-2.7359,
2.830338,1.4702,0.2509,0.3904,7.8839,3.6916,1.5607,0.7739,0.0280,-2.7359,
2.832788,1.4474,0.2409,0.3821,7.8839,3.6916,1.5607,0.7739,0.0280,-2.7359,
2.835246,1.4247,0.2313,0.3738,7.8839,3.6916,1.5607,0.7739,0.0280,-2.7359,
2.837659,1.4013,0.2223,0.3652,7.8839,3.6916,1.5607,0.7739,0.0280,-2.7359,
2.838160,1.4013,0.2223,0.3652,12.1607,3.2911,3.2002,0.7739,0.0280,-2.7359,
2.840057,1.3773,0.2145,0.3589,12.1607,3.2911,3.2002,0.7739,0.0280,-2.7359,
2.842469,1.3568,0.2033,0.3545,12.1607,3.2911,3.2002,0.7739,0.0280,-2.7359,
2.844660,1.3319,0.1905,0.3501,12.1607,3.2911,3.2002,0.7739,0.0280,-2.7359,
2.847192,1.3104,0.1783,0.3413,12.1607,3.2911,3.2002,0.7739,0.0280,-2.7359,
2.849627,1.2904,0.1627,0.3318,12.1607,3.2911,3.2002,0.7739,0.0280,-2.7359,
2.851964,1.2662,0.1481,0.3210,12.1607,3.2911,3.2002,0.7739,0.0280,-2.7359,
2.854345,1.2437,0.1353,0.3134,12.1607,3.2911,3.2002,0.7739,0.0280,-2.7359,
2.857266,1.2215,0.1199,0.3037,12.1607,3.2911,3.2002,0.7739,0.0280,-2.7359,
2.859520,1.2012,0.1043,0.2936,12.1607,3.2911,3.2002,0.7739,0.0280,-2.7359,
2.861668,1.1807,0.0906,0.2883,12.1607,3.2911,3.2002,0.7739,0.0280,-2.7359,
2.864053,1.1624,0.0745,0.2792,12.1607,3.2911,3.2002,0.7739,0.0280,-2.7359,
2.866948,1.1423,0.0611,0.2707,12.1607,3.2911,3.2002,0.7739,0.0280,-2.7359,
2.869147,1.1221,0.0486,0.2634,12.1607,3.2911,3.2002,0.7739,0.0280,-2.7359,
2.871631,1.1035,0.0362,0.2545,12.1607,3.2911,3.2002,0.7739,0.0280,-2.7359,
2.874170,1.0822,0.0232,0.2462,12.1607,3.2911,3.2002,0.7739,0.0280,-2.7359,
2.877429,1.0595,0.0122,0.2392,12.1607,3.2911,3.2002,0.7739,0.0280,-2.7359,
2.878799,1.0348,0.0039,0.2331,12.1607,3.2911,3.2002,0.7739,0.0280,-2.7359,
2.881942,1.0124,-0.0049,0.2287,12.1607,3.2911,3.2002,0.7739,0.0280,-2.7359,
2.883885,0.9843,-0.0107,0.2233,12.1607,3.2911,3.2002,0.7739,0.0280,-2.7359,
2.886174,0.9581,-0.0171,0.2191,12.1607,3.2911,3.2002,0.7739,0.0280,-2.7359,
2.888653,0.9315,-0.0239,0.2162,12.1607,3.2911,3.2002,0.7739,0.0280,-2.7359,
2.891232,0.9010,-0.0281,0.2145,12.1607,3.2911,3.2002,0.7739,0.0280,-2.7359,
2.893649,0.8709,-0.0352,0.2116,12.1607,3.2911,3.2002,0.7739,0.0280,-2.7359,
2.896075,0.8411,-0.0442,0.2077,12.1607,3.2911,3.2002,0.7739,0.0280,-2.7359,
2.899313,0.8411,-0.0442,0.2077,12.1607,3.2911,3.2002,0.4173,-0.3722,-2.9884,
2.899812,0.8133,-0.0567,0.2052,12.1607,3.2911,3.2002,0.4173,-0.3722,-2.9884,
2.900885,0.7837,-0.0713,0.2030,12.1607,3.2911,3.2002,0.4173,-0.3722,-2.9884,
2.903125,0.7539,-0.0848,0.2020,12.1607,3.2911,3.2002,0.4173,-0.3722,-2.9884,
2.905609,0.7246,-0.1024,0.1986,12.1607,3.2911,3.2002,0.4173,-0.3722,-2.9884,
2.905932,0.7246,-0.1024,0.1986,8.1231,-1.4100,2.0685,0.4173,-0.3722,-2.9884,
2.908180,0.6911,-0.1170,0.1954,8.1231,-1.4100,2.0685,0.4173,-0.3722,-2.9884,
2.910582,0.6574,-0.1309,0.1881,8.1231,-1.4100,2.0685,0.4173,-0.3722,-2.9884,
2.912858,0.6212,-0.1488,0.1839,8.1231,-1.4100,2.0685,0.4173,-0.3722,-2.9884,
2.916024,0.5831,-0.1642,0.1815,8.1231,-1.4100,2.0685,0.4173,-0.3722,-2.9884,
2.917879,0.5418,-0.1796,0.1788,8.1231,-1.4100,2.0685,0.4173,-0.3722,-2.9884,
2.920213,0.5030,-0.1964,0.1798,8.1231,-1.4100,2.0685,0.4173,-0.3722,-2.9884,
2.922597,0.4629,-0.2118,0.1830,8.1231,-1.4100,2.0685,0.4173,-0.3722,-2.9884,
2.925226,0.4194,-0.2265,0.1883,8.1231,-1.4100,2.0685,0.4173,-0.3722,-2.9884,
2.927572,0.3765,-0.2414,0.1937,8.1231,-1.4100,2.0685,0.4173,-0.3722,-2.9884,
2.929967,0.3354,-0.2543,0.2006,8.1231,-1.4100,2.0685,0.4173,-0.3722,-2.9884,
2.933276,0.2932,-0.2651,0.2074,8.1231,-1.4100,2.0685,0.4173,-0.3722,-2.9884,
2.935061,0.2477,-0.2739,0.2162,8.1231,-1.4100,2.0685,0.4173,-0.3722,-2.9884,
2.937414,0.2045,-0.2775,0.2228,8.1231,-1.4100,2.0685,0.4173,-0.3722,-2.9884,
2.939838,0.1600,-0.2780,0.2282,8.1231,-1.4100,2.0685,0.4173,-0.3722,-2.9884,
2.942357,0.1141,-0.2795,0.2331,8.1231,-1.4100,2.0685,0.4173,-0.3722,-2.9884,
2.944757,0.0682,-0.2773,0.2345,8.1231,-1.4100,2.0685,0.4173,-0.3722,-2.9884,
2.947143,0.0261,-0.2736,0.2362,8.1231,-1.4100,2.0685,0.4173,-0.3722,-2.9884,
2.949905,-0.0144,-0.2704,0.2370,8.1231,-1.4100,2.0685,0.4173,-0.3722,-2.9884,
2.952027,-0.0564,-0.2682,0.2348,8.1231,-1.4100,2.0685,0.4173,-0.3722,-2.9884,
2.954310,-0.0965,-0.2656,0.2323,8.1231,-1.4100,2.0685,0.4173,-0.3722,-2.9884,
2.957259,-0.1336,-0.2682,0.2260,8.1231,-1.4100,2.0685,0.4173,-0.3722,-2.9884,
2.959325,-0.1710,-0.2678,0.2179,8.1231,-1.4100,2.0685,0.4173,-0.3722,-2.9884,
2.961627,-0.2103,-0.2673,0.2086,8.1231,-1.4100,2.0685,0.4173,-0.3722,-2.9884,
2.964023,-0.2499,-0.2646,0.1964,8.1231,-1.4100,2.0685,0.4173,-0.3722,-2.9884,
2.967001,-0.2499,-0.2646,0.1964,8.1231,-1.4100,2.0685,-0.1702,0.4888,-2.9333,
2.967381,-0.2875,-0.2599,0.1849,8.1231,-1.4100,2.0685,-0.1702,0.4888,-2.9333,
2.969242,-0.3215,-0.2560,0.1727,8.1231,-1.4100,2.0685,-0.1702,0.4888,-2.9333,
2.971385,-0.3545,-0.2492,0.1622,8.1231,-1.4100,2.0685,-0.1702,0.4888,-2.9333,
2.973828,-0.3875,-0.2377,0.1515,8.1231,-1.4100,2.0685,-0.1702,0.4888,-2.9333,
2.974229,-0.3875,-0.2377,0.1515,2.8096,-6.1252,-0.3237,-0.1702,0.4888,-2.9333,
2.977437,-0.4168,-0.2272,0.1444,2.8096,-6.1252,-0.3237,-0.1702,0.4888,-2.9333,
2.978678,-0.4441,-0.2150,0.1358,2.8096,-6.1252,-0.3237,-0.1702,0.4888,-2.9333,
2.981136,-0.4673,-0.2030,0.1270,2.8096,-6.1252,-0.3237,-0.1702,0.4888,-2.9333,
2.983740,-0.4869,-0.1898,0.1190,2.8096,-6.1252,-0.3237,-0.1702,0.4888,-2.9333,
2.986091,-0.5047,-0.1800,0.1119,2.8096,-6.1252,-0.3237,-0.1702,0.4888,-2.9333,
2.988500,-0.5167,-0.1722,0.1051,2.8096,-6.1252,-0.3237,-0.1702,0.4888,-2.9333,
2.990826,-0.5260,-0.1669,0.0975,2.8096,-6.1252,-0.3237,-0.1702,0.4888,-2.9333,
2.993628,-0.5357,-0.1627,0.0911,2.8096,-6.1252,-0.3237,-0.1702,0.4888,-2.9333,
2.995771,-0.5435,-0.1595,0.0843,2.8096,-6.1252,-0.3237,-0.1702,0.4888,-2.9333,
2.998271,-0.5502,-0.1551,0.0765,2.8096,-6.1252,-0.3237,-0.1702,0.4888,-2.9333,
3.000967,-0.5538,-0.1534,0.0704,2.8096,-6.1252,-0.3237,-0.1702,0.4888,-2.9333,
3.003102,-0.5577,-0.1507,0.0662,2.8096,-6.1252,-0.3237,-0.1702,0.4888,-2.9333,
3.005449,-0.5599,-0.1468,0.0633,2.8096,-6.1252,-0.3237,-0.1702,0.4888,-2.9333,
3.008084,-0.5607,-0.1417,0.0638,2.8096,-6.1252,-0.3237,-0.1702,0.4888,-2.9333,
3.010553,-0.5612,-0.1365,0.0655,2.8096,-6.1252,-0.3237,-0.1702,0.4888,-2.9333,
3.012861,-0.5629,-0.1300,0.0679,2.8096,-6.1252,-0.3237,-0.1702,0.4888,-2.9333,
3.015311,-0.5636,-0.1224,0.0686,2.8096,-6.1252,-0.3237,-0.1702,0.4888,-2.9333,
3.018135,-0.5665,-0.1146,0.0725,2.8096,-6.1252,-0.3237,-0.1702,0.4888,-2.9333,
3.020222,-0.5687,-0.1085,0.0796,2.8096,-6.1252,-0.3237,-0.1702,0.4888,-2.9333,
3.022511,-0.5697,-0.1011,0.0899,2.8096,-6.1252,-0.3237,-0.1702,0.4888,-2.9333,
3.024907,-0.5736,-0.0943,0.1024,2.8096,-6.1252,-0.3237,-0.1702,0.4888,-2.9333,
3.027824,-0.5763,-0.0860,0.1143,2.8096,-6.1252,-0.3237,-0.1702,0.4888,-2.9333,
3.029849,-0.5775,-0.0811,0.1263,2.8096,-6.1252,-0.3237,-0.1702,0.4888,-2.9333,
3.032297,-0.5804,-0.0750,0.1400,2.8096,-6.1252,-0.3237,-0.1702,0.4888,-2.9333,
3.035002,-0.5804,-0.0750,0.1400,2.8096,-6.1252,-0.3237,-0.1304,0.0994,-1.5555,
3.035920,-0.5802,-0.0716,0.1537,2.8096,-6.1252,-0.3237,-0.1304,0.0994,-1.5555,
3.037307,-0.5817,-0.0682,0.1681,2.8096,-6.1252,-0.3237,-0.1304,0.0994,-1.5555,
3.039751,-0.5824,-0.0660,0.1818,2.8096,-6.1252,-0.3237,-0.1304,0.0994,-1.5555,
3.043298,-0.5856,-0.0645,0.1954,2.8096,-6.1252,-0.3237,-0.1304,0.0994,-1.5555,
3.043827,-0.5856,-0.0645,0.1954,-4.6948,-10.0044,-1.1759,-0.1304,0.0994,-1.5555,
3.044727,-0.5902,-0.0608,0.2089,-4.6948,-10.0044,-1.1759,-0.1304,0.0994,-1.5555,
3.046937,-0.5924,-0.0630,0.2223,-4.6948,-10.0044,-1.1759,-0.1304,0.0994,-1.5555,
3.049279,-0.6012,-0.0667,0.2396,-4.6948,-10.0044,-1.1759,-0.1304,0.0994,-1.5555,
3.052654,-0.6068,-0.0682,0.2563,-4.6948,-10.0044,-1.1759,-0.1304,0.0994,-1.5555,
3.054322,-0.6151,-0.0718,0.2734,-4.6948,-10.0044,-1.1759,-0.1304,0.0994,-1.5555,
3.057229,-0.6252,-0.0721,0.2914,-4.6948,-10.0044,-1.1759,-0.1304,0.0994,-1.5555,
3.059742,-0.6386,-0.0740,0.3078,-4.6948,-10.0044,-1.1759,-0.1304,0.0994,-1.5555,
3.061683,-0.6525,-0.0750,0.3288,-4.6948,-10.0044,-1.1759,-0.1304,0.0994,-1.5555,
3.063963,-0.6635,-0.0743,0.3537,-4.6948,-10.0044,-1.1759,-0.1304,0.0994,-1.5555,
3.066580,-0.6760,-0.0718,0.3818,-4.6948,-10.0044,-1.1759,-0.1304,0.0994,-1.5555,
3.069333,-0.6857,-0.0694,0.4089,-4.6948,-10.0044,-1.1759,-0.1304,0.0994,-1.5555,
3.071409,-0.6933,-0.0684,0.4351,-4.6948,-10.0044,-1.1759,-0.1304,0.0994,-1.5555,
3.073635,-0.7019,-0.0672,0.4598,-4.6948,-10.0044,-1.1759,-0.1304,0.0994,-1.5555,
3.077188,-0.7092,-0.0682,0.4830,-4.6948,-10.0044,-1.1759,-0.1304,0.0994,-1.5555,
3.078620,-0.7160,-0.0713,0.5030,-4.6948,-10.0044,-1.1759,-0.1304,0.0994,-1.5555,
3.081046,-0.7248,-0.0730,0.5196,-4.6948,-10.0044,-1.1759,-0.1304,0.0994,-1.5555,
3.083503,-0.7334,-0.0765,0.5345,-4.6948,-10.0044,-1.1759,-0.1304,0.0994,-1.5555,
3.086396,-0.7417,-0.0801,0.5475,-4.6948,-10.0044,-1.1759,-0.1304,0.0994,-1.5555,
3.088556,-0.7490,-0.0840,0.5592,-4.6948,-10.0044,-1.1759,-0.1304,0.0994,-1.5555,
3.090792,-0.7549,-0.0902,0.5699,-4.6948,-10.0044,-1.1759,-0.1304,0.0994,-1.5555,
3.093694,-0.7585,-0.0960,0.5780,-4.6948,-10.0044,-1.1759,-0.1304,0.0994,-1.5555,
3.095951,-0.7627,-0.1053,0.5846,-4.6948,-10.0044,-1.1759,-0.1304,0.0994,-1.5555,
3.098233,-0.7685,-0.1112,0.5856,-4.6948,-10.0044,-1.1759,-0.1304,0.0994,-1.5555,
3.100647,-0.7752,-0.1175,0.5856,-4.6948,-10.0044,-1.1759,-0.1304,0.0994,-1.5555,
3.103206,-0.7752,-0.1175,0.5856,-4.6948,-10.0044,-1.1759,-0.4058,0.8051,-0.4461,
3.104043,-0.7835,-0.1234,0.5822,-4.6948,-10.0044,-1.1759,-0.4058,0.8051,-0.4461,
3.105460,-0.7908,-0.1268,0.5746,-4.6948,-10.0044,-1.1759,-0.4058,0.8051,-0.4461,
3.107843,-0.7969,-0.1302,0.5687,-4.6948,-10.0044,-1.1759,-0.4058,0.8051,-0.4461,
3.110808,-0.8023,-0.1336,0.5629,-4.6948,-10.0044,-1.1759,-0.4058,0.8051,-0.4461,
3.111174,-0.8023,-0.1336,0.5629,-10.4385,-9.2400,-2.2501,-0.4058,0.8051,-0.4461,
3.112826,-0.8057,-0.1380,0.5577,-10.4385,-9.2400,-2.2501,-0.4058,0.8051,-0.4461,
3.115144,-0.8101,-0.1400,0.5533,-10.4385,-9.2400,-2.2501,-0.4058,0.8051,-0.4461,
3.117625,-0.8145,-0.1422,0.5494,-10.4385,-9.2400,-2.2501,-0.4058,0.8051,-0.4461,
3.120746,-0.8198,-0.1405,0.5450,-10.4385,-9.2400,-2.2501,-0.4058,0.8051,-0.4461,
3.122570,-0.8264,-0.1380,0.5416,-10.4385,-9.2400,-2.2501,-0.4058,0.8051,-0.4461,
3.124945,-0.8355,-0.1334,0.5399,-10.4385,-9.2400,-2.2501,-0.4058,0.8051,-0.4461,
3.128339,-0.8438,-0.1268,0.5399,-10.4385,-9.2400,-2.2501,-0.4058,0.8051,-0.4461,
3.129860,-0.8487,-0.1195,0.5435,-10.4385,-9.2400,-2.2501,-0.4058,0.8051,-0.4461,
3.132190,-0.8519,-0.1138,0.5499,-10.4385,-9.2400,-2.2501,-0.4058,0.8051,-0.4461,
3.134608,-0.8548,-0.1092,0.5607,-10.4385,-9.2400,-2.2501,-0.4058,0.8051,-0.4461,
3.137378,-0.8536,-0.1033,0.5714,-10.4385,-9.2400,-2.2501,-0.4058,0.8051,-0.4461,
3.139604,-0.8516,-0.1007,0.5826,-10.4385,-9.2400,-2.2501,-0.4058,0.8051,-0.4461,
3.141944,-0.8465,-0.1019,0.5936,-10.4385,-9.2400,-2.2501,-0.4058,0.8051,-0.4461,
3.144725,-0.8389,-0.1014,0.6022,-10.4385,-9.2400,-2.2501,-0.4058,0.8051,-0.4461,
3.146877,-0.8286,-0.1031,0.6090,-10.4385,-9.2400,-2.2501,-0.4058,0.8051,-0.4461,
3.149381,-0.8162,-0.1055,0.6151,-10.4385,-9.2400,-2.2501,-0.4058,0.8051,-0.4461,
3.152058,-0.8008,-0.1121,0.6254,-10.4385,-9.2400,-2.2501,-0.4058,0.8051,-0.4461,
3.154296,-0.7808,-0.1153,0.6332,-10.4385,-9.2400,-2.2501,-0.4058,0.8051,-0.4461,
3.157219,-0.7610,-0.1207,0.6376,-10.4385,-9.2400,-2.2501,-0.4058,0.8051,-0.4461,
3.159020,-0.7390,-0.1246,0.6403,-10.4385,-9.2400,-2.2501,-0.4058,0.8051,-0.4461,
3.161883,-0.7148,-0.1263,0.6405,-10.4385,-9.2400,-2.2501,-0.4058,0.8051,-0.4461,
3.164051,-0.6879,-0.1304,0.6376,-10.4385,-9.2400,-2.2501,-0.4058,0.8051,-0.4461,
3.166283,-0.6608,-0.1322,0.6352,-10.4385,-9.2400,-2.2501,-0.4058,0.8051,-0.4461,
3.168749,-0.6325,-0.1397,0.6303,-10.4385,-9.2400,-2.2501,-0.4058,0.8051,-0.4461,
3.171357,-0.6005,-0.1461,0.6249,-10.4385,-9.2400,-2.2501,-0.4058,0.8051,-0.4461,
3.171960,-0.6005,-0.1461,0.6249,-10.4385,-9.2400,-2.2501,0.0751,1.1365,0.8015,
3.173631,-0.5653,-0.1527,0.6191,-10.4385,-9.2400,-2.2501,0.0751,1.1365,0.8015,
3.177093,-0.5286,-0.1625,0.6125,-10.4385,-9.2400,-2.2501,0.0751,1.1365,0.8015,
3.178852,-0.5286,-0.1625,0.6125,-11.3514,-8.6011,0.5987,0.0751,1.1365,0.8015,
3.179356,-0.4954,-0.1691,0.6029,-11.3514,-8.6011,0.5987,0.0751,1.1365,0.8015,
3.181231,-0.4610,-0.1749,0.5973,-11.3514,-8.6011,0.5987,0.0751,1.1365,0.8015,
3.183613,-0.4258,-0.1783,0.5939,-11.3514,-8.6011,0.5987,0.0751,1.1365,0.8015,
3.187269,-0.3909,-0.1825,0.5905,-11.3514,-8.6011,0.5987,0.0751,1.1365,0.8015,
3.188710,-0.3503,-0.1883,0.5905,-11.3514,-8.6011,0.5987,0.0751,1.1365,0.8015,
3.190727,-0.3056,-0.1949,0.5919,-11.3514,-8.6011,0.5987,0.0751,1.1365,0.8015,
3.193109,-0.2617,-0.2016,0.5948,-11.3514,-8.6011,0.5987,0.0751,1.1365,0.8015,
3.195685,-0.2160,-0.2077,0.5968,-11.3514,-8.6011,0.5987,0.0751,1.1365,0.8015,
3.198096,-0.1727,-0.2155,0.5995,-11.3514,-8.6011,0.5987,0.0751,1.1365,0.8015,
3.200626,-0.1314,-0.2252,0.5988,-11.3514,-8.6011,0.5987,0.0751,1.1365,0.8015,
3.204139,-0.0936,-0.2357,0.5988,-11.3514,-8.6011,0.5987,0.0751,1.1365,0.8015,
3.205368,-0.0579,-0.2497,0.6007,-11.3514,-8.6011,0.5987,0.0751,1.1365,0.8015,
3.207785,-0.0308,-0.2643,0.6007,-11.3514,-8.6011,0.5987,0.0751,1.1365,0.8015,
3.210182,-0.0105,-0.2785,0.6010,-11.3514,-8.6011,0.5987,0.0751,1.1365,0.8015,
3.213009,0.0090,-0.2910,0.5985,-11.3514,-8.6011,0.5987,0.0751,1.1365,0.8015,
3.215323,0.0190,-0.3022,0.5980,-11.3514,-8.6011,0.5987,0.0751,1.1365,0.8015,
3.217638,0.0222,-0.3083,0.5956,-11.3514,-8.6011,0.5987,0.0751,1.1365,0.8015,
3.221157,0.0149,-0.3102,0.5885,-11.3514,-8.6011,0.5987,0.0751,1.1365,0.8015,
3.222615,0.0012,-0.3058,0.5846,-11.3514,-8.6011,0.5987,0.0751,1.1365,0.8015,
3.224861,-0.0227,-0.2988,0.5804,-11.3514,-8.6011,0.5987,0.0751,1.1365,0.8015,
3.227306,-0.0523,-0.2914,0.5822,-11.3514,-8.6011,0.5987,0.0751,1.1365,0.8015,
3.229732,-0.0843,-0.2839,0.5873,-11.3514,-8.6011,0.5987,0.0751,1.1365,0.8015,
3.232206,-0.1146,-0.2827,0.5919,-11.3514,-8.6011,0.5987,0.0751,1.1365,0.8015,
3.234581,-0.1481,-0.2829,0.5968,-11.3514,-8.6011,0.5987,0.0751,1.1365,0.8015,
3.237716,-0.1776,-0.2870,0.6007,-11.3514,-8.6011,0.5987,0.0751,1.1365,0.8015,
3.239599,-0.1776,-0.2870,0.6007,-11.3514,-8.6011,0.5987,0.0870,1.9932,1.9126,
3.240090,-0.2055,-0.2914,0.6007,-11.3514,-8.6011,0.5987,0.0870,1.9932,1.9126,
3.241950,-0.2277,-0.2975,0.5963,-11.3514,-8.6011,0.5987,0.0870,1.9932,1.9126,
3.244322,-0.2514,-0.3022,0.5897,-11.3514,-8.6011,0.5987,0.0870,1.9932,1.9126,
3.246936,-0.2704,-0.3027,0.5809,-11.3514,-8.6011,0.5987,0.0870,1.9932,1.9126,
3.247349,-0.2704,-0.3027,0.5809,-11.8812,-8.5195,1.6849,0.0870,1.9932,1.9126,
3.249217,-0.2822,-0.3022,0.5699,-11.8812,-8.5195,1.6849,0.0870,1.9932,1.9126,
3.251581,-0.2880,-0.3015,0.5572,-11.8812,-8.5195,1.6849,0.0870,1.9932,1.9126,
3.254157,-0.2853,-0.3010,0.5426,-11.8812,-8.5195,1.6849,0.0870,1.9932,1.9126,
3.257304,-0.2753,-0.3024,0.5267,-11.8812,-8.5195,1.6849,0.0870,1.9932,1.9126,
3.258908,-0.2570,-0.3056,0.5111,-11.8812,-8.5195,1.6849,0.0870,1.9932,1.9126,
3.261356,-0.2313,-0.3156,0.4976,-11.8812,-8.5195,1.6849,0.0870,1.9932,1.9126,
3.263902,-0.1988,-0.3296,0.4822,-11.8812,-8.5195,1.6849,0.0870,1.9932,1.9126,
3.266294,-0.1595,-0.3423,0.4666,-11.8812,-8.5195,1.6849,0.0870,1.9932,1.9126,
3.268738,-0.1199,-0.3532,0.4478,-11.8812,-8.5195,1.6849,0.0870,1.9932,1.9126,
3.271751,-0.0808,-0.3596,0.4292,-11.8812,-8.5195,1.6849,0.0870,1.9932,1.9126,
3.273611,-0.0501,-0.3569,0.4102,-11.8812,-8.5195,1.6849,0.0870,1.9932,1.9126,
3.276918,-0.0232,-0.3452,0.3950,-11.8812,-8.5195,1.6849,0.0870,1.9932,1.9126,
3.278550,-0.0039,-0.3286,0.3818,-11.8812,-8.5195,1.6849,0.0870,1.9932,1.9126,
3.281139,0.0144,-0.3095,0.3762,-11.8812,-8.5195,1.6849,0.0870,1.9932,1.9126,
3.283328,0.0352,-0.2934,0.3760,-11.8812,-8.5195,1.6849,0.0870,1.9932,1.9126,
3.285816,0.0581,-0.2814,0.3821,-11.8812,-8.5195,1.6849,0.0870,1.9932,1.9126,
3.288931,0.0860,-0.2770,0.3909,-11.8812,-8.5195,1.6849,0.0870,1.9932,1.9126,
3.290757,0.1156,-0.2756,0.4024,-11.8812,-8.5195,1.6849,0.0870,1.9932,1.9126,
3.293040,0.1444,-0.2805,0.4177,-11.8812,-8.5195,1.6849,0.0870,1.9932,1.9126,
3.295915,0.1713,-0.2861,0.4317,-11.8812,-8.5195,1.6849,0.0870,1.9932,1.9126,
3.298026,0.1949,-0.2912,0.4432,-11.8812,-8.5195,1.6849,0.0870,1.9932,1.9126,
3.300369,0.2174,-0.2934,0.4549,-11.8812,-8.5195,1.6849,0.0870,1.9932,1.9126,
3.302955,0.2365,-0.2946,0.4690,-11.8812,-8.5195,1.6849,0.0870,1.9932,1.9126,
3.305745,0.2550,-0.2956,0.4842,-11.8812,-8.5195,1.6849,0.0870,1.9932,1.9126,
3.307932,0.2550,-0.2956,0.4842,-11.8812,-8.5195,1.6849,-0.3063,1.9704,3.0133,
3.308547,0.2741,-0.2968,0.5003,-11.8812,-8.5195,1.6849,-0.3063,1.9704,3.0133,
3.310214,0.2961,-0.3017,0.5201,-11.8812,-8.5195,1.6849,-0.3063,1.9704,3.0133,
3.312848,0.3217,-0.3078,0.5377,-11.8812,-8.5195,1.6849,-0.3063,1.9704,3.0133,
3.315240,0.3476,-0.3149,0.5543,-11.8812,-8.5195,1.6849,-0.3063,1.9704,3.0133,
3.315825,0.3476,-0.3149,0.5543,-6.1049,-9.0246,1.0333,-0.3063,1.9704,3.0133,
3.317615,0.3760,-0.3281,0.5687,-6.1049,-9.0246,1.0333,-0.3063,1.9704,3.0133,
3.320096,0.4050,-0.3418,0.5790,-6.1049,-9.0246,1.0333,-0.3063,1.9704,3.0133,
3.323092,0.4336,-0.3542,0.5858,-6.1049,-9.0246,1.0333,-0.3063,1.9704,3.0133,
3.324854,0.4629,-0.3623,0.5890,-6.1049,-9.0246,1.0333,-0.3063,1.9704,3.0133,
3.327254,0.4937,-0.3723,0.5880,-6.1049,-9.0246,1.0333,-0.3063,1.9704,3.0133,
3.329942,0.5291,-0.3826,0.5863,-6.1049,-9.0246,1.0333,-0.3063,1.9704,3.0133,
3.332204,0.5702,-0.3933,0.5819,-6.1049,-9.0246,1.0333,-0.3063,1.9704,3.0133,
3.334484,0.6132,-0.4031,0.5734,-6.1049,-9.0246,1.0333,-0.3063,1.9704,3.0133,
3.337152,0.6589,-0.4119,0.5604,-6.1049,-9.0246,1.0333,-0.3063,1.9704,3.0133,
3.339741,0.7075,-0.4190,0.5438,-6.1049,-9.0246,1.0333,-0.3063,1.9704,3.0133,
3.341832,0.7556,-0.4260,0.5262,-6.1049,-9.0246,1.0333,-0.3063,1.9704,3.0133,
3.344222,0.8020,-0.4292,0.5084,-6.1049,-9.0246,1.0333,-0.3063,1.9704,3.0133,
3.347479,0.8436,-0.4302,0.4906,-6.1049,-9.0246,1.0333,-0.3063,1.9704,3.0133,
3.349405,0.8829,-0.4268,0.4747,-6.1049,-9.0246,1.0333,-0.3063,1.9704,3.0133,
3.351577,0.9176,-0.4214,0.4617,-6.1049,-9.0246,1.0333,-0.3063,1.9704,3.0133,
3.354023,0.9459,-0.4107,0.4505,-6.1049,-9.0246,1.0333,-0.3063,1.9704,3.0133,
3.357267,0.9694,-0.3906,0.4449,-6.1049,-9.0246,1.0333,-0.3063,1.9704,3.0133,
3.358995,0.9906,-0.3664,0.4456,-6.1049,-9.0246,1.0333,-0.3063,1.9704,3.0133,
3.361448,1.0119,-0.3410,0.4554,-6.1049,-9.0246,1.0333,-0.3063,1.9704,3.0133,
3.364259,1.0343,-0.3169,0.4712,-6.1049,-9.0246,1.0333,-0.3063,1.9704,3.0133,
3.366331,1.0654,-0.2993,0.4920,-6.1049,-9.0246,1.0333,-0.3063,1.9704,3.0133,
3.368694,1.0957,-0.2910,0.5191,-6.1049,-9.0246,1.0333,-0.3063,1.9704,3.0133,
3.371124,1.1265,-0.2910,0.5497,-6.1049,-9.0246,1.0333,-0.3063,1.9704,3.0133,
3.373688,1.1592,-0.2975,0.5792,-6.1049,-9.0246,1.0333,-0.3063,1.9704,3.0133,
3.376997,1.1592,-0.2975,0.5792,-6.1049,-9.0246,1.0333,-0.6117,0.5087,4.1547,
3.377338,1.1927,-0.3073,0.6105,-6.1049,-9.0246,1.0333,-0.6117,0.5087,4.1547,
3.378331,1.2234,-0.3227,0.6413,-6.1049,-9.0246,1.0333,-0.6117,0.5087,4.1547,
3.381377,1.2559,-0.3362,0.6706,-6.1049,-9.0246,1.0333,-0.6117,0.5087,4.1547,
3.383307,1.2889,-0.3442,0.6970,-6.1049,-9.0246,1.0333,-0.6117,0.5087,4.1547,
3.383644,1.2889,-0.3442,0.6970,-4.9460,-8.1166,-0.9963,-0.6117,0.5087,4.1547,
3.385652,1.3214,-0.3513,0.7224,-4.9460,-8.1166,-0.9963,-0.6117,0.5087,4.1547,
3.388142,1.3578,-0.3545,0.7451,-4.9460,-8.1166,-0.9963,-0.6117,0.5087,4.1547,
3.390826,1.3949,-0.3542,0.7656,-4.9460,-8.1166,-0.9963,-0.6117,0.5087,4.1547,
3.393061,1.4347,-0.3506,0.7825,-4.9460,-8.1166,-0.9963,-0.6117,0.5087,4.1547,
3.395471,1.4785,-0.3447,0.7969,-4.9460,-8.1166,-0.9963,-0.6117,0.5087,4.1547,
3.398229,1.5259,-0.3349,0.8072,-4.9460,-8.1166,-0.9963,-0.6117,0.5087,4.1547,
3.400375,1.5782,-0.3215,0.8093,-4.9460,-8.1166,-0.9963,-0.6117,0.5087,4.1547,
3.402747,1.6336,-0.3068,0.8037,-4.9460,-8.1166,-0.9963,-0.6117,0.5087,4.1547,
3.405166,1.6947,-0.2936,0.7932,-4.9460,-8.1166,-0.9963,-0.6117,0.5087,4.1547,
3.408246,1.7636,-0.2819,0.7803,-4.9460,-8.1166,-0.9963,-0.6117,0.5087,4.1547,
3.410101,1.8381,-0.2726,0.7649,-4.9460,-8.1166,-0.9963,-0.6117,0.5087,4.1547,
3.412542,1.9158,-0.2651,0.7441,-4.9460,-8.1166,-0.9963,-0.6117,0.5087,4.1547,
3.415122,1.9947,-0.2607,0.7202,-4.9460,-8.1166,-0.9963,-0.6117,0.5087,4.1547,
3.417626,2.0731,-0.2585,0.6955,-4.9460,-8.1166,-0.9963,-0.6117,0.5087,4.1547,
3.419874,2.1481,-0.2533,0.6633,-4.9460,-8.1166,-0.9963,-0.6117,0.5087,4.1547,
3.422213,2.2155,-0.2467,0.6322,-4.9460,-8.1166,-0.9963,-0.6117,0.5087,4.1547,
3.424852,2.2739,-0.2370,0.5985,-4.9460,-8.1166,-0.9963,-0.6117,0.5087,4.1547,
3.427114,2.3238,-0.2221,0.5685,-4.9460,-8.1166,-0.9963,-0.6117,0.5087,4.1547,
3.429549,2.3621,-0.2052,0.5406,-4.9460,-8.1166,-0.9963,-0.6117,0.5087,4.1547,
3.432423,2.3912,-0.1820,0.5116,-4.9460,-8.1166,-0.9963,-0.6117,0.5087,4.1547,
3.434497,2.4085,-0.1568,0.4859,-4.9460,-8.1166,-0.9963,-0.6117,0.5087,4.1547,
3.437249,2.4136,-0.1302,0.4598,-4.9460,-8.1166,-0.9963,-0.6117,0.5087,4.1547,
3.439300,2.4068,-0.1016,0.4378,-4.9460,-8.1166,-0.9963,-0.6117,0.5087,4.1547,
3.441921,2.3926,-0.0760,0.4219,-4.9460,-8.1166,-0.9963,-0.6117,0.5087,4.1547,
3.444219,2.3926,-0.0760,0.4219,-4.9460,-8.1166,-0.9963,-0.2464,-0.7500,4.3733,
3.444614,2.3714,-0.0533,0.4151,-4.9460,-8.1166,-0.9963,-0.2464,-0.7500,4.3733,
3.446586,2.3470,-0.0347,0.4182,-4.9460,-8.1166,-0.9963,-0.2464,-0.7500,4.3733,
3.449107,2.3191,-0.0234,0.4312,-4.9460,-8.1166,-0.9963,-0.2464,-0.7500,4.3733,
3.451525,2.2886,-0.0161,0.4510,-4.9460,-8.1166,-0.9963,-0.2464,-0.7500,4.3733,
3.451817,2.2886,-0.0161,0.4510,2.0826,-6.6291,-0.4911,-0.2464,-0.7500,4.3733,
3.453861,2.2605,-0.0166,0.4825,2.0826,-6.6291,-0.4911,-0.2464,-0.7500,4.3733,
3.457579,2.2380,-0.0200,0.5221,2.0826,-6.6291,-0.4911,-0.2464,-0.7500,4.3733,
3.458900,2.2231,-0.0242,0.5685,2.0826,-6.6291,-0.4911,-0.2464,-0.7500,4.3733,
3.461279,2.2109,-0.0259,0.6164,2.0826,-6.6291,-0.4911,-0.2464,-0.7500,4.3733,
3.463633,2.1999,-0.0247,0.6618,2.0826,-6.6291,-0.4911,-0.2464,-0.7500,4.3733,
3.466492,2.1947,-0.0181,0.7050,2.0826,-6.6291,-0.4911,-0.2464,-0.7500,4.3733,
3.468724,2.1943,-0.0020,0.7453,2.0826,-6.6291,-0.4911,-0.2464,-0.7500,4.3733,
3.470892,2.2008,0.0186,0.7827,2.0826,-6.6291,-0.4911,-0.2464,-0.7500,4.3733,
3.473349,2.2163,0.0447,0.8162,2.0826,-6.6291,-0.4911,-0.2464,-0.7500,4.3733,
3.475953,2.2434,0.0701,0.8467,2.0826,-6.6291,-0.4911,-0.2464,-0.7500,4.3733,
3.478307,2.2827,0.0968,0.8680,2.0826,-6.6291,-0.4911,-0.2464,-0.7500,4.3733,
3.480931,2.3328,0.1170,0.8799,2.0826,-6.6291,-0.4911,-0.2464,-0.7500,4.3733,
3.483692,2.3929,0.1319,0.8797,2.0826,-6.6291,-0.4911,-0.2464,-0.7500,4.3733,
3.485639,2.4564,0.1454,0.8712,2.0826,-6.6291,-0.4911,-0.2464,-0.7500,4.3733,
3.487956,2.5209,0.1556,0.8550,2.0826,-6.6291,-0.4911,-0.2464,-0.7500,4.3733,
3.490520,2.5810,0.1629,0.8316,2.0826,-6.6291,-0.4911,-0.2464,-0.7500,4.3733,
3.492961,2.6357,0.1713,0.8032,2.0826,-6.6291,-0.4911,-0.2464,-0.7500,4.3733,
3.495383,2.6833,0.1766,0.7688,2.0826,-6.6291,-0.4911,-0.2464,-0.7500,4.3733,
3.497809,2.7224,0.1830,0.7348,2.0826,-6.6291,-0.4911,-0.2464,-0.7500,4.3733,
3.500606,2.7483,0.1932,0.6997,2.0826,-6.6291,-0.4911,-0.2464,-0.7500,4.3733,
3.502738,2.7664,0.2052,0.6645,2.0826,-6.6291,-0.4911,-0.2464,-0.7500,4.3733,
3.506136,2.7723,0.2204,0.6305,2.0826,-6.6291,-0.4911,-0.2464,-0.7500,4.3733,
3.510825,2.7662,0.2399,0.5992,2.0826,-6.6291,-0.4911,-0.2464,-0.7500,4.3733,
3.511955,2.7498,0.2629,0.5726,2.0826,-6.6291,-0.4911,-0.2464,-0.7500,4.3733,
3.513088,2.7498,0.2629,0.5726,2.0826,-6.6291,-0.4911,0.0502,-0.7234,3.0187,
3.513973,2.7268,0.2841,0.5521,2.0826,-6.6291,-0.4911,0.0502,-0.7234,3.0187,
3.515116,2.6970,0.3034,0.5367,2.0826,-6.6291,-0.4911,0.0502,-0.7234,3.0187,
3.518169,2.6638,0.3222,0.5282,2.0826,-6.6291,-0.4911,0.0502,-0.7234,3.0187,
3.520731,2.6281,0.3396,0.5265,2.0826,-6.6291,-0.4911,0.0502,-0.7234,3.0187,
3.521419,2.6281,0.3396,0.5265,12.0739,-3.1961,0.7334,0.0502,-0.7234,3.0187,
3.523010,2.5942,0.3515,0.5318,12.0739,-3.1961,0.7334,0.0502,-0.7234,3.0187,
3.525843,2.5607,0.3606,0.5431,12.0739,-3.1961,0.7334,0.0502,-0.7234,3.0187,
3.527633,2.5272,0.3689,0.5565,12.0739,-3.1961,0.7334,0.0502,-0.7234,3.0187,
3.530228,2.4960,0.3748,0.5719,12.0739,-3.1961,0.7334,0.0502,-0.7234,3.0187,
3.532643,2.4691,0.3799,0.5892,12.0739,-3.1961,0.7334,0.0502,-0.7234,3.0187,
3.534715,2.4461,0.3845,0.6090,12.0739,-3.1961,0.7334,0.0502,-0.7234,3.0187,
3.537483,2.4256,0.3911,0.6274,12.0739,-3.1961,0.7334,0.0502,-0.7234,3.0187,
3.539791,2.4080,0.3972,0.6479,12.0739,-3.1961,0.7334,0.0502,-0.7234,3.0187,
3.543364,2.3948,0.3999,0.6682,12.0739,-3.1961,0.7334,0.0502,-0.7234,3.0187,
3.544718,2.3841,0.4026,0.6899,12.0739,-3.1961,0.7334,0.0502,-0.7234,3.0187,
3.547385,2.3777,0.4060,0.7104,12.0739,-3.1961,0.7334,0.0502,-0.7234,3.0187,
3.549378,2.3709,0.4097,0.7287,12.0739,-3.1961,0.7334,0.0502,-0.7234,3.0187,
3.551876,2.3670,0.4133,0.7468,12.0739,-3.1961,0.7334,0.0502,-0.7234,3.0187,
