
time,gFx,gFy,gFz,ax,ay,az,wx,wy,wz,
0.076920,-0.1438,0.4596,0.8090,0.0000,0.0000,0.0000,0.0000,0.0000,0.0000,
0.095906,-0.1438,0.4596,0.8090,0.0000,0.0000,0.0000,-0.2360,-0.5552,0.4505,
0.144067,-0.0475,0.5049,0.8066,0.0000,0.0000,0.0000,-0.2360,-0.5552,0.4505,
0.163196,-0.0475,0.5049,0.8066,0.0000,0.0000,0.0000,-0.1358,-0.4826,0.0021,
0.173274,-0.0475,0.5049,0.8066,0.0000,0.0000,0.0000,-0.1358,-0.4826,0.0021,
0.212672,-0.1178,0.4729,0.8453,0.0000,0.0000,0.0000,-0.1358,-0.4826,0.0021,
0.231129,-0.1178,0.4729,0.8453,0.0000,0.0000,0.0000,0.0589,-0.9572,0.1108,
0.241571,-0.1178,0.4729,0.8453,-0.1691,0.0094,0.0393,0.0589,-0.9572,0.1108,
0.280589,-0.0138,0.4885,0.8809,-0.1691,0.0094,0.0393,0.0589,-0.9572,0.1108,
0.299394,-0.0138,0.4885,0.8809,-0.1691,0.0094,0.0393,-0.0260,-1.0106,0.3279,
0.309253,-0.0138,0.4885,0.8809,-0.6533,-0.1414,0.3498,-0.0260,-1.0106,0.3279,
0.348374,-0.0318,0.4718,0.8716,-0.6533,-0.1414,0.3498,-0.0260,-1.0106,0.3279,
0.367502,-0.0318,0.4718,0.8716,-0.6533,-0.1414,0.3498,-0.2934,-0.4668,0.0508,
0.377610,-0.0318,0.4718,0.8716,-0.0675,0.1421,0.2373,-0.2934,-0.4668,0.0508,
0.417204,-0.0454,0.4290,0.8802,-0.0675,0.1421,0.2373,-0.2934,-0.4668,0.0508,
0.436628,-0.0454,0.4290,0.8802,-0.0675,0.1421,0.2373,-0.3180,-0.2285,0.0338,
0.445620,-0.0454,0.4290,0.8802,-0.5029,0.0492,0.0780,-0.3180,-0.2285,0.0338,
0.484696,-0.0259,0.3485,0.9313,-0.5029,0.0492,0.0780,-0.3180,-0.2285,0.0338,
0.504140,-0.0259,0.3485,0.9313,-0.5029,0.0492,0.0780,-0.5338,-0.1956,0.1797,
0.513847,-0.0259,0.3485,0.9313,-0.5715,-0.2044,0.1443,-0.5338,-0.1956,0.1797,
0.552886,0.0313,0.2577,1.0106,-0.5715,-0.2044,0.1443,-0.5338,-0.1956,0.1797,
0.572120,0.0313,0.2577,1.0106,-0.5715,-0.2044,0.1443,0.0908,-0.2173,0.3231,
0.582174,0.0313,0.2577,1.0106,-0.3136,-0.9958,0.7603,0.0908,-0.2173,0.3231,
0.621126,0.0548,0.2432,1.0359,-0.3136,-0.9958,0.7603,0.0908,-0.2173,0.3231,
0.640579,0.0548,0.2432,1.0359,-0.3136,-0.9958,0.7603,0.1664,-0.3493,0.2479,
0.650449,0.0548,0.2432,1.0359,-0.0942,-1.5362,1.2519,0.1664,-0.3493,0.2479,
0.689298,0.1184,0.2629,1.1090,-0.0942,-1.5362,1.2519,0.1664,-0.3493,0.2479,
0.709023,0.1184,0.2629,1.1090,-0.0942,-1.5362,1.2519,-0.3279,-0.3422,0.2763,
0.718678,0.1184,0.2629,1.1090,-0.1729,-0.9756,1.3111,-0.3279,-0.3422,0.2763,
0.757603,0.1717,0.1922,1.0886,-0.1729,-0.9756,1.3111,-0.3279,-0.3422,0.2763,
0.776826,0.1717,0.1922,1.0886,-0.1729,-0.9756,1.3111,-0.4876,0.0208,0.1855,
0.787336,0.1717,0.1922,1.0886,0.7239,-0.7635,1.5271,-0.4876,0.0208,0.1855,
0.825825,0.1775,0.1554,1.0168,0.7239,-0.7635,1.5271,-0.4876,0.0208,0.1855,
0.845172,0.1775,0.1554,1.0168,0.7239,-0.7635,1.5271,-0.3128,0.0757,0.2668,
0.856347,0.1775,0.1554,1.0168,0.6249,-1.1550,0.7043,-0.3128,0.0757,0.2668,
0.893892,0.2617,0.1489,1.1851,0.6249,-1.1550,0.7043,-0.3128,0.0757,0.2668,
0.913490,0.2617,0.1489,1.1851,0.6249,-1.1550,0.7043,-0.5206,-0.1649,0.0427,
0.923268,0.2617,0.1489,1.1851,0.9894,-0.8960,0.8199,-0.5206,-0.1649,0.0427,
0.962736,0.1897,0.1568,1.2383,0.9894,-0.8960,0.8199,-0.5206,-0.1649,0.0427,
0.982126,0.1897,0.1568,1.2383,0.9894,-0.8960,0.8199,-0.4019,0.0045,-0.0500,
0.992272,0.1897,0.1568,1.2383,1.1806,-0.5472,2.1737,-0.4019,0.0045,-0.0500,
1.031712,0.1731,0.2088,1.2560,1.1806,-0.5472,2.1737,-0.4019,0.0045,-0.0500,
1.051709,0.1731,0.2088,1.2560,1.1806,-0.5472,2.1737,-0.5534,0.0105,0.0328,
1.060915,0.1731,0.2088,1.2560,0.3175,0.0993,1.9473,-0.5534,0.0105,0.0328,
1.099428,0.1413,0.1625,1.2421,0.3175,0.0993,1.9473,-0.5534,0.0105,0.0328,
1.118330,0.1413,0.1625,1.2421,0.3175,0.0993,1.9473,-0.0158,0.1261,-0.0331,
1.128132,0.1413,0.1625,1.2421,0.5060,0.0714,2.1094,-0.0158,0.1261,-0.0331,
1.167301,0.1240,0.1405,1.1995,0.5060,0.0714,2.1094,-0.0158,0.1261,-0.0331,
1.186322,0.1240,0.1405,1.1995,0.5060,0.0714,2.1094,0.2963,-0.1350,0.0399,
1.197560,0.1240,0.1405,1.1995,-0.0431,-0.4272,1.6702,0.2963,-0.1350,0.0399,
1.236847,0.1341,0.1203,1.1333,-0.0431,-0.4272,1.6702,0.2963,-0.1350,0.0399,
1.254997,0.1341,0.1203,1.1333,-0.0431,-0.4272,1.6702,0.2259,0.0321,0.0631,
1.264933,0.1341,0.1203,1.1333,-0.1119,-0.7199,1.0605,0.2259,0.0321,0.0631,
1.303852,0.1546,0.1128,1.1134,-0.1119,-0.7199,1.0605,0.2259,0.0321,0.0631,
1.323303,0.1546,0.1128,1.1134,-0.1119,-0.7199,1.0605,0.3183,0.3114,0.0778,
1.332768,0.1546,0.1128,1.1134,0.3842,-1.0115,0.5722,0.3183,0.3114,0.0778,
1.372249,0.1476,0.1376,0.9465,0.3842,-1.0115,0.5722,0.3183,0.3114,0.0778,
1.391628,0.1476,0.1376,0.9465,0.3842,-1.0115,0.5722,0.7066,0.6943,0.1946,
1.401257,0.1476,0.1376,0.9465,0.8768,-1.5534,0.2046,0.7066,0.6943,0.1946,
1.440743,0.1396,0.2169,0.8154,0.8768,-1.5534,0.2046,0.7066,0.6943,0.1946,
1.459751,0.1396,0.2169,0.8154,0.8768,-1.5534,0.2046,0.3680,0.6038,0.0727,
1.469672,0.1396,0.2169,0.8154,1.1238,-1.1119,-1.9609,0.3680,0.6038,0.0727,
1.509113,0.1491,0.2322,0.8238,1.1238,-1.1119,-1.9609,0.3680,0.6038,0.0727,
1.527908,0.1491,0.2322,0.8238,1.1238,-1.1119,-1.9609,0.7612,0.7697,-0.1642,
1.537967,0.1491,0.2322,0.8238,1.7482,-1.0910,-1.5287,0.7612,0.7697,-0.1642,
1.577526,0.0731,0.2467,0.7551,1.7482,-1.0910,-1.5287,0.7612,0.7697,-0.1642,
1.597440,0.0731,0.2467,0.7551,1.7482,-1.0910,-1.5287,1.1173,0.8934,-0.2232,
1.606067,0.0731,0.2467,0.7551,1.8791,-1.7460,-2.0432,1.1173,0.8934,-0.2232,
1.645504,-0.0002,0.2534,0.5558,1.8791,-1.7460,-2.0432,1.1173,0.8934,-0.2232,
1.664456,-0.0002,0.2534,0.5558,1.8791,-1.7460,-2.0432,1.1495,0.8343,-0.4980,
1.674370,-0.0002,0.2534,0.5558,2.0194,-2.0830,-1.8988,1.1495,0.8343,-0.4980,
1.714019,-0.1918,0.4128,0.6011,2.0194,-2.0830,-1.8988,1.1495,0.8343,-0.4980,
1.732531,-0.1918,0.4128,0.6011,2.0194,-2.0830,-1.8988,-0.2137,0.6331,-0.2412,
1.744292,-0.1918,0.4128,0.6011,0.7111,-1.1180,-4.1686,-0.2137,0.6331,-0.2412,
1.781237,-0.2445,0.4859,0.9332,0.7111,-1.1180,-4.1686,-0.2137,0.6331,-0.2412,
1.800526,-0.2445,0.4859,0.9332,0.7111,-1.1180,-4.1686,-0.3577,-0.5071,-0.1616,
1.811601,-0.2445,0.4859,0.9332,-0.6464,0.3567,-1.7097,-0.3577,-0.5071,-0.1616,
1.849739,-0.2547,0.4388,1.0642,-0.6464,0.3567,-1.7097,-0.3577,-0.5071,-0.1616,
1.869900,-0.2547,0.4388,1.0642,-0.6464,0.3567,-1.7097,0.6185,-1.0793,0.1267,
1.880285,-0.2547,0.4388,1.0642,-1.9033,0.1908,1.2660,0.6185,-1.0793,0.1267,
1.917949,-0.2106,0.4165,0.8908,-1.9033,0.1908,1.2660,0.6185,-1.0793,0.1267,
1.938198,-0.2106,0.4165,0.8908,-1.9033,0.1908,1.2660,0.8321,-0.7157,0.4800,
1.948651,-0.2106,0.4165,0.8908,-1.8854,-0.9755,1.0105,0.8321,-0.7157,0.4800,
1.985907,-0.2349,0.4344,0.7947,-1.8854,-0.9755,1.0105,0.8321,-0.7157,0.4800,
2.006312,-0.2349,0.4344,0.7947,-1.8854,-0.9755,1.0105,0.3596,0.0116,0.6242,
2.016400,-0.2349,0.4344,0.7947,-1.9449,-0.9770,-0.4136,0.3596,0.0116,0.6242,
2.054173,-0.2103,0.4728,0.9878,-1.9449,-0.9770,-0.4136,0.3596,0.0116,0.6242,
2.074181,-0.2103,0.4728,0.9878,-1.9449,-0.9770,-0.4136,0.3220,0.4303,0.6984,
2.084477,-0.2103,0.4728,0.9878,-1.9424,-0.8409,0.0415,0.3220,0.4303,0.6984,
2.124239,-0.2272,0.4771,0.9450,-1.9424,-0.8409,0.0415,0.3220,0.4303,0.6984,
2.142166,-0.2272,0.4771,0.9450,-1.9424,-0.8409,0.0415,0.8126,0.8023,1.0615,
2.152216,-0.2272,0.4771,0.9450,-1.8162,-1.3169,1.4250,0.8126,0.8023,1.0615,
2.192308,-0.0590,0.5156,0.8799,-1.8162,-1.3169,1.4250,0.8126,0.8023,1.0615,
2.211463,-0.0590,0.5156,0.8799,-1.8162,-1.3169,1.4250,1.0092,0.5735,0.9524,
2.220666,-0.0590,0.5156,0.8799,-1.2008,-1.4014,1.5535,1.0092,0.5735,0.9524,
2.260674,-0.0800,0.5734,0.7131,-1.2008,-1.4014,1.5535,1.0092,0.5735,0.9524,
2.280405,-0.0800,0.5734,0.7131,-1.2008,-1.4014,1.5535,0.4436,0.9575,0.7027,
2.288580,-0.0800,0.5734,0.7131,0.2183,-1.1381,0.2562,0.4436,0.9575,0.7027,
2.328611,-0.1418,0.5773,0.7259,0.2183,-1.1381,0.2562,0.4436,0.9575,0.7027,
2.347922,-0.1418,0.5773,0.7259,0.2183,-1.1381,0.2562,0.1985,0.9108,0.8627,
2.357769,-0.1418,0.5773,0.7259,-0.5678,-1.0933,-0.7180,0.1985,0.9108,0.8627,
2.396702,-0.1237,0.6496,0.7633,-0.5678,-1.0933,-0.7180,0.1985,0.9108,0.8627,
2.415318,-0.1237,0.6496,0.7633,-0.5678,-1.0933,-0.7180,0.4120,1.0065,0.8136,
2.425018,-0.1237,0.6496,0.7633,-0.4392,-0.8901,0.1939,0.4120,1.0065,0.8136,
2.463951,-0.0669,0.6930,0.8038,-0.4392,-0.8901,0.1939,0.4120,1.0065,0.8136,
2.483834,-0.0669,0.6930,0.8038,-0.4392,-0.8901,0.1939,0.3258,0.7614,0.7557,
2.493030,-0.0669,0.6930,0.8038,-0.2535,-0.3713,0.5975,0.3258,0.7614,0.7557,
2.531838,0.0180,0.6754,0.7945,-0.2535,-0.3713,0.5975,0.3258,0.7614,0.7557,
2.551720,0.0180,0.6754,0.7945,-0.2535,-0.3713,0.5975,0.1236,1.1489,0.8876,
2.561299,0.0180,0.6754,0.7945,0.6562,-0.3946,1.0069,0.1236,1.1489,0.8876,
2.600476,0.0656,0.6999,0.7593,0.6562,-0.3946,1.0069,0.1236,1.1489,0.8876,
2.620329,0.0656,0.6999,0.7593,0.6562,-0.3946,1.0069,-0.0654,0.8417,0.7759,
2.629925,0.0656,0.6999,0.7593,1.3163,-0.3160,0.6865,-0.0654,0.8417,0.7759,
2.668961,0.0476,0.6976,0.6779,1.3163,-0.3160,0.6865,-0.0654,0.8417,0.7759,
2.687720,0.0476,0.6976,0.6779,1.3163,-0.3160,0.6865,-0.1978,1.0028,0.5705,
2.697708,0.0476,0.6976,0.6779,1.8182,-0.2362,0.1682,-0.1978,1.0028,0.5705,
2.737458,-0.0173,0.6892,0.6709,1.8182,-0.2362,0.1682,-0.1978,1.0028,0.5705,
2.757094,-0.0173,0.6892,0.6709,1.8182,-0.2362,0.1682,-0.4677,0.6053,0.5841,
2.765826,-0.0173,0.6892,0.6709,1.1273,0.0696,-0.6634,-0.4677,0.6053,0.5841,
2.805114,-0.0162,0.6672,0.6616,1.1273,0.0696,-0.6634,-0.4677,0.6053,0.5841,
2.824525,-0.0162,0.6672,0.6616,1.1273,0.0696,-0.6634,-0.1531,0.5262,0.7830,
2.834375,-0.0162,0.6672,0.6616,0.6900,-0.2497,-0.5502,-0.1531,0.5262,0.7830,
2.873335,0.0090,0.6863,0.6607,0.6900,-0.2497,-0.5502,-0.1531,0.5262,0.7830,
2.892915,0.0090,0.6863,0.6607,0.6900,-0.2497,-0.5502,-0.0103,0.4033,0.7555,
2.902518,0.0090,0.6863,0.6607,0.6282,-0.2213,-0.7580,-0.0103,0.4033,0.7555,
2.941989,-0.0034,0.6903,0.6594,0.6282,-0.2213,-0.7580,-0.0103,0.4033,0.7555,
2.961680,-0.0034,0.6903,0.6594,0.6282,-0.2213,-0.7580,-0.1765,0.4673,0.6506,
2.971065,-0.0034,0.6903,0.6594,0.7794,-0.1055,-0.7217,-0.1765,0.4673,0.6506,
3.009782,0.0223,0.6867,0.7316,0.7794,-0.1055,-0.7217,-0.1765,0.4673,0.6506,
3.030162,0.0223,0.6867,0.7316,0.7794,-0.1055,-0.7217,-0.1515,0.4478,0.4769,
3.039425,0.0223,0.6867,0.7316,0.6768,0.0412,-0.4123,-0.1515,0.4478,0.4769,
3.078200,0.0009,0.6616,0.7162,0.6768,0.0412,-0.4123,-0.1515,0.4478,0.4769,
3.098094,0.0009,0.6616,0.7162,0.6768,0.0412,-0.4123,-0.2460,0.5098,0.4300,
3.107804,0.0009,0.6616,0.7162,0.8611,0.0027,-0.1940,-0.2460,0.5098,0.4300,
3.146617,-0.0718,0.6957,0.7258,0.8611,0.0027,-0.1940,-0.2460,0.5098,0.4300,
3.169149,-0.0718,0.6957,0.7258,0.8611,0.0027,-0.1940,-0.3024,0.7555,0.4235,
3.177059,-0.0718,0.6957,0.7258,0.6786,-0.0085,-0.3394,-0.3024,0.7555,0.4235,
3.214708,-0.1489,0.7064,0.8280,0.6786,-0.0085,-0.3394,-0.3024,0.7555,0.4235,
3.234131,-0.1489,0.7064,0.8280,0.6786,-0.0085,-0.3394,-0.6877,0.3764,0.3586,
3.244647,-0.1489,0.7064,0.8280,-0.5011,0.9868,-0.3619,-0.6877,0.3764,0.3586,
3.284938,-0.1608,0.5416,0.9351,-0.5011,0.9868,-0.3619,-0.6877,0.3764,0.3586,
3.304383,-0.1608,0.5416,0.9351,-0.5011,0.9868,-0.3619,-0.0620,1.0274,0.7252,
3.312550,-0.1608,0.5416,0.9351,-0.2002,-0.1712,1.4663,-0.0620,1.0274,0.7252,
3.352426,-0.2479,0.6433,0.7648,-0.2002,-0.1712,1.4663,-0.0620,1.0274,0.7252,
3.372437,-0.2479,0.6433,0.7648,-0.2002,-0.1712,1.4663,-0.2776,0.4936,0.6413,
3.380896,-0.2479,0.6433,0.7648,-1.0783,-0.4211,0.3419,-0.2776,0.4936,0.6413,
3.421070,-0.0970,0.4805,0.9393,-1.0783,-0.4211,0.3419,-0.2776,0.4936,0.6413,
3.439752,-0.0970,0.4805,0.9393,-1.0783,-0.4211,0.3419,-0.3788,0.7004,0.4711,
3.448436,-0.0970,0.4805,0.9393,-0.4653,-0.0929,0.7180,-0.3788,0.7004,0.4711,
3.489032,-0.1771,0.4871,0.7712,-0.4653,-0.0929,0.7180,-0.3788,0.7004,0.4711,
3.508293,-0.1771,0.4871,0.7712,-0.4653,-0.0929,0.7180,-0.5140,0.7146,0.5982,
3.517729,-0.1771,0.4871,0.7712,0.1655,-1.1031,0.3663,-0.5140,0.7146,0.5982,
3.557229,-0.1435,0.4814,0.8315,0.1655,-1.1031,0.3663,-0.5140,0.7146,0.5982,
3.576060,-0.1435,0.4814,0.8315,0.1655,-1.1031,0.3663,0.1039,0.3347,0.7650,
3.584897,-0.1435,0.4814,0.8315,-0.5125,-1.1602,0.0312,0.1039,0.3347,0.7650,
3.625575,-0.0972,0.5445,0.7103,-0.5125,-1.1602,0.0312,0.1039,0.3347,0.7650,
3.645141,-0.0972,0.5445,0.7103,-0.5125,-1.1602,0.0312,0.0932,0.2960,0.5075,
3.653093,-0.0972,0.5445,0.7103,0.1567,-0.8748,-0.1814,0.0932,0.2960,0.5075,
3.693322,-0.1563,0.5996,0.7027,0.1567,-0.8748,-0.1814,0.0932,0.2960,0.5075,
3.712817,-0.1563,0.5996,0.7027,0.1567,-0.8748,-0.1814,-0.3066,0.1429,0.2349,
3.722683,-0.1563,0.5996,0.7027,0.0432,-0.1360,-1.2240,-0.3066,0.1429,0.2349,
3.762058,-0.1443,0.6154,0.8431,0.0432,-0.1360,-1.2240,-0.3066,0.1429,0.2349,
3.779719,-0.1443,0.6154,0.8431,0.0432,-0.1360,-1.2240,-0.1510,-0.1230,0.3275,
3.791079,-0.1443,0.6154,0.8431,-0.5520,0.2367,-0.4757,-0.1510,-0.1230,0.3275,
3.830489,-0.1600,0.7191,0.8830,-0.5520,0.2367,-0.4757,-0.1510,-0.1230,0.3275,
3.848411,-0.1600,0.7191,0.8830,-0.5520,0.2367,-0.4757,-0.0463,-0.3201,0.2782,
3.857833,-0.1600,0.7191,0.8830,-0.7588,0.8342,0.4062,-0.0463,-0.3201,0.2782,
3.899053,-0.1178,0.6127,1.1877,-0.7588,0.8342,0.4062,-0.0463,-0.3201,0.2782,
3.917323,-0.1178,0.6127,1.1877,-0.7588,0.8342,0.4062,-0.3402,-0.5015,0.1860,
3.926045,-0.1178,0.6127,1.1877,-1.0913,1.2759,1.3063,-0.3402,-0.5015,0.1860,
3.966286,0.1240,0.5278,1.3280,-1.0913,1.2759,1.3063,-0.3402,-0.5015,0.1860,
3.983949,0.1240,0.5278,1.3280,-1.0913,1.2759,1.3063,0.4667,-0.6425,0.3011,
3.997197,0.1240,0.5278,1.3280,-0.5848,-0.2817,5.1793,0.4667,-0.6425,0.3011,
4.034455,0.1670,0.4580,0.9095,-0.5848,-0.2817,5.1793,0.4667,-0.6425,0.3011,
4.053169,0.1670,0.4580,0.9095,-0.5848,-0.2817,5.1793,0.4956,0.9526,-0.0144,
4.063500,0.1670,0.4580,0.9095,2.7582,-1.2003,3.3514,0.4956,0.9526,-0.0144,
4.103151,-0.0075,0.4845,0.6712,2.7582,-1.2003,3.3514,0.4956,0.9526,-0.0144,
4.122069,-0.0075,0.4845,0.6712,2.7582,-1.2003,3.3514,0.2609,0.4413,0.1874,
4.131422,-0.0075,0.4845,0.6712,1.1357,-1.7744,-0.3495,0.2609,0.4413,0.1874,
4.171105,0.0119,0.5619,0.5898,1.1357,-1.7744,-0.3495,0.2609,0.4413,0.1874,
4.190963,0.0119,0.5619,0.5898,1.1357,-1.7744,-0.3495,0.3514,0.2772,0.0050,
4.200173,0.0119,0.5619,0.5898,0.9077,-1.2127,-1.2550,0.3514,0.2772,0.0050,
4.237704,-0.0857,0.5989,0.6086,0.9077,-1.2127,-1.2550,0.3514,0.2772,0.0050,
4.257390,-0.0857,0.5989,0.6086,0.9077,-1.2127,-1.2550,-0.1260,0.2130,0.0391,
4.267090,-0.0857,0.5989,0.6086,0.3729,-0.5441,-2.1653,-0.1260,0.2130,0.0391,
4.306833,-0.0345,0.6350,0.7055,0.3729,-0.5441,-2.1653,-0.1260,0.2130,0.0391,
4.326287,-0.0345,0.6350,0.7055,0.3729,-0.5441,-2.1653,0.0812,0.2178,0.0593,
4.335857,-0.0345,0.6350,0.7055,0.2812,-0.2589,-0.9358,0.0812,0.2178,0.0593,
4.374623,-0.1044,0.6813,0.6554,0.2812,-0.2589,-0.9358,0.0812,0.2178,0.0593,
4.393236,-0.1044,0.6813,0.6554,0.2812,-0.2589,-0.9358,-0.0066,0.2656,0.1125,
4.403520,-0.1044,0.6813,0.6554,0.4192,0.0595,-0.9510,-0.0066,0.2656,0.1125,
4.443980,-0.1490,0.7296,0.7533,0.4192,0.0595,-0.9510,-0.0066,0.2656,0.1125,
4.463359,-0.1490,0.7296,0.7533,0.4192,0.0595,-0.9510,0.1608,0.2782,0.1240,
4.472429,-0.1490,0.7296,0.7533,-0.1639,0.5390,-0.6865,0.1608,0.2782,0.1240,
4.511197,-0.1871,0.6998,0.8205,-0.1639,0.5390,-0.6865,0.1608,0.2782,0.1240,
4.530164,-0.1871,0.6998,0.8205,-0.1639,0.5390,-0.6865,0.0428,0.5437,0.2398,
4.541285,-0.1871,0.6998,0.8205,-0.1840,0.5910,0.3329,0.0428,0.5437,0.2398,
4.580363,-0.2028,0.6795,0.9432,-0.1840,0.5910,0.3329,0.0428,0.5437,0.2398,
4.599384,-0.2028,0.6795,0.9432,-0.1840,0.5910,0.3329,-0.1445,-0.0086,0.3777,
4.608402,-0.2028,0.6795,0.9432,-1.2602,0.5530,0.8868,-0.1445,-0.0086,0.3777,
4.648736,-0.1963,0.4921,0.9183,-1.2602,0.5530,0.8868,-0.1445,-0.0086,0.3777,
4.667321,-0.1963,0.4921,0.9183,-1.2602,0.5530,0.8868,0.5792,1.2857,0.6365,
4.677955,-0.1963,0.4921,0.9183,-0.0098,-1.0805,2.8780,0.5792,1.2857,0.6365,
4.717129,-0.3489,0.6306,0.6804,-0.0098,-1.0805,2.8780,0.5792,1.2857,0.6365,
4.735630,-0.3489,0.6306,0.6804,-0.0098,-1.0805,2.8780,-0.4116,0.6009,0.5725,
4.745195,-0.3489,0.6306,0.6804,-1.4392,-1.1588,-0.1730,-0.4116,0.6009,0.5725,
4.784920,-0.1632,0.4902,0.9716,-1.4392,-1.1588,-0.1730,-0.4116,0.6009,0.5725,
4.804247,-0.1632,0.4902,0.9716,-1.4392,-1.1588,-0.1730,-0.6104,0.3828,0.4678,
4.813430,-0.1632,0.4902,0.9716,-1.1199,-0.5211,0.5446,-0.6104,0.3828,0.4678,
4.853884,-0.1888,0.4750,0.8027,-1.1199,-0.5211,0.5446,-0.6104,0.3828,0.4678,
4.873327,-0.1888,0.4750,0.8027,-1.1199,-0.5211,0.5446,-0.0418,0.7963,0.6173,
4.883666,-0.1888,0.4750,0.8027,0.1224,-1.7775,1.7060,-0.0418,0.7963,0.6173,
4.922200,-0.1678,0.5354,0.7065,0.1224,-1.7775,1.7060,-0.0418,0.7963,0.6173,
4.941025,-0.1678,0.5354,0.7065,0.1224,-1.7775,1.7060,0.2248,0.1755,0.6996,
4.951544,-0.1678,0.5354,0.7065,-0.5886,-1.6555,-0.0955,0.2248,0.1755,0.6996,
4.990173,-0.0878,0.6086,0.7286,-0.5886,-1.6555,-0.0955,0.2248,0.1755,0.6996,
5.010620,-0.0878,0.6086,0.7286,-0.5886,-1.6555,-0.0955,0.2700,0.1280,0.3867,
5.019187,-0.0878,0.6086,0.7286,0.1852,-1.0638,-0.2605,0.2700,0.1280,0.3867,
5.059502,-0.1278,0.6621,0.7455,0.1852,-1.0638,-0.2605,0.2700,0.1280,0.3867,
5.078270,-0.1278,0.6621,0.7455,0.1852,-1.0638,-0.2605,0.2035,0.0163,0.1568,
5.087451,-0.1278,0.6621,0.7455,0.1956,-0.5101,0.0370,0.2035,0.0163,0.1568,
5.124732,-0.1622,0.6977,0.7607,0.1956,-0.5101,0.0370,0.2035,0.0163,0.1568,
5.144467,-0.1622,0.6977,0.7607,0.1956,-0.5101,0.0370,0.2585,0.0355,0.1025,
5.155589,-0.1622,0.6977,0.7607,-0.0771,-0.2971,0.5677,0.2585,0.0355,0.1025,
5.193351,-0.2022,0.7845,0.7874,-0.0771,-0.2971,0.5677,0.2585,0.0355,0.1025,
5.212718,-0.2022,0.7845,0.7874,-0.0771,-0.2971,0.5677,-0.6716,-0.4807,0.1342,
5.222663,-0.2022,0.7845,0.7874,-1.1221,0.7462,-0.4067,-0.6716,-0.4807,0.1342,
5.261523,0.0241,0.6100,1.1771,-1.1221,0.7462,-0.4067,-0.6716,-0.4807,0.1342,
5.280664,0.0241,0.6100,1.1771,-1.1221,0.7462,-0.4067,-0.3754,0.1055,0.2061,
5.290477,0.0241,0.6100,1.1771,-0.0083,0.8362,2.0982,-0.3754,0.1055,0.2061,
5.329642,0.0606,0.5684,0.8430,-0.0083,0.8362,2.0982,-0.3754,0.1055,0.2061,
5.349371,0.0606,0.5684,0.8430,-0.0083,0.8362,2.0982,1.1482,0.5215,0.1313,
5.359213,0.0606,0.5684,0.8430,1.6068,-1.6240,3.9812,1.1482,0.5215,0.1313,
5.398113,0.0180,0.5569,0.5601,1.6068,-1.6240,3.9812,1.1482,0.5215,0.1313,
5.417600,0.0180,0.5569,0.5601,1.6068,-1.6240,3.9812,-0.2268,0.3083,-0.2913,
5.427132,0.0180,0.5569,0.5601,1.8640,-0.9065,-0.7877,-0.2268,0.3083,-0.2913,
5.466751,-0.0050,0.5731,0.6926,1.8640,-0.9065,-0.7877,-0.2268,0.3083,-0.2913,
5.485971,-0.0050,0.5731,0.6926,1.8640,-0.9065,-0.7877,-0.2672,-0.0424,0.0643,
5.508044,-0.0050,0.5731,0.6926,1.1501,-1.3716,-1.1916,-0.2672,-0.0424,0.0643,
5.535150,0.0180,0.6587,0.6237,1.1501,-1.3716,-1.1916,-0.2672,-0.0424,0.0643,
5.554254,0.0180,0.6587,0.6237,1.1501,-1.3716,-1.1916,-0.0381,-0.2113,-0.0140,
5.564669,0.0180,0.6587,0.6237,1.3973,-0.5941,-0.6351,-0.0381,-0.2113,-0.0140,
5.603850,-0.0737,0.6951,0.6448,1.3973,-0.5941,-0.6351,-0.0381,-0.2113,-0.0140,
5.622187,-0.0737,0.6951,0.6448,1.3973,-0.5941,-0.6351,-0.2141,-0.0793,-0.1311,
5.631890,-0.0737,0.6951,0.6448,0.9574,0.1951,-1.2386,-0.2141,-0.0793,-0.1311,
5.671638,-0.1661,0.7190,0.7215,0.9574,0.1951,-1.2386,-0.2141,-0.0793,-0.1311,
5.690645,-0.1661,0.7190,0.7215,0.9574,0.1951,-1.2386,-0.1144,-0.0238,-0.1210,
5.700764,-0.1661,0.7190,0.7215,0.0052,0.4790,-0.7991,-0.1144,-0.0238,-0.1210,
5.739959,-0.2394,0.7323,0.7485,0.0052,0.4790,-0.7991,-0.1144,-0.0238,-0.1210,
5.758877,-0.2394,0.7323,0.7485,0.0052,0.4790,-0.7991,0.2272,0.2151,-0.0127,
5.768423,-0.2394,0.7323,0.7485,-0.5275,0.4827,0.1361,0.2272,0.2151,-0.0127,
5.808436,-0.2417,0.7437,0.8263,-0.5275,0.4827,0.1361,0.2272,0.2151,-0.0127,
5.827669,-0.2417,0.7437,0.8263,-0.5275,0.4827,0.1361,0.2440,0.1723,0.1978,
5.837969,-0.2417,0.7437,0.8263,-1.2333,0.5814,0.3214,0.2440,0.1723,0.1978,
5.875758,-0.3039,0.7597,0.7656,-1.2333,0.5814,0.3214,0.2440,0.1723,0.1978,
5.894277,-0.3039,0.7597,0.7656,-1.2333,0.5814,0.3214,0.1333,0.5549,0.3607,
5.904291,-0.3039,0.7597,0.7656,-0.9822,0.4576,1.0697,0.1333,0.5549,0.3607,
5.943454,-0.2519,0.6293,0.9091,-0.9822,0.4576,1.0697,0.1333,0.5549,0.3607,
5.963119,-0.2519,0.6293,0.9091,-0.9822,0.4576,1.0697,-0.5272,0.2429,0.5847,
5.972835,-0.2519,0.6293,0.9091,-1.7344,0.6641,0.3740,-0.5272,0.2429,0.5847,
6.011555,-0.2351,0.5573,0.7439,-1.7344,0.6641,0.3740,-0.5272,0.2429,0.5847,
6.031047,-0.2351,0.5573,0.7439,-1.7344,0.6641,0.3740,0.4153,1.0137,0.9838,
6.041283,-0.2351,0.5573,0.7439,-0.6366,-1.6877,2.0430,0.4153,1.0137,0.9838,
6.079862,-0.1828,0.6307,0.7991,-0.6366,-1.6877,2.0430,0.4153,1.0137,0.9838,
6.099131,-0.1828,0.6307,0.7991,-0.6366,-1.6877,2.0430,-0.4034,-0.3242,0.5238,
6.109580,-0.1828,0.6307,0.7991,-1.5863,-0.3768,-0.5976,-0.4034,-0.3242,0.5238,
6.148669,-0.0849,0.5058,0.7427,-1.5863,-0.3768,-0.5976,-0.4034,-0.3242,0.5238,
6.167315,-0.0849,0.5058,0.7427,-1.5863,-0.3768,-0.5976,-0.5336,0.5974,0.3867,
6.177615,-0.0849,0.5058,0.7427,0.0725,-1.0793,0.7678,-0.5336,0.5974,0.3867,
6.217536,-0.1416,0.4985,0.7381,0.0725,-1.0793,0.7678,-0.5336,0.5974,0.3867,
6.237174,-0.1416,0.4985,0.7381,0.0725,-1.0793,0.7678,-1.1036,-0.2826,0.5539,
6.245438,-0.1416,0.4985,0.7381,-0.5371,-0.5955,-0.9270,-1.1036,-0.2826,0.5539,
6.284903,-0.0712,0.4598,0.8251,-0.5371,-0.5955,-0.9270,-1.1036,-0.2826,0.5539,
6.303628,-0.0712,0.4598,0.8251,-0.5371,-0.5955,-0.9270,-0.7553,-0.4527,0.5813,
6.313920,-0.0712,0.4598,0.8251,-0.8231,-1.0392,-0.7958,-0.7553,-0.4527,0.5813,
6.353057,-0.0281,0.4538,0.9027,-0.8231,-1.0392,-0.7958,-0.7553,-0.4527,0.5813,
6.371876,-0.0281,0.4538,0.9027,-0.8231,-1.0392,-0.7958,-0.2003,-0.0878,0.2574,
6.382013,-0.0281,0.4538,0.9027,-0.3466,-0.8929,0.1773,-0.2003,-0.0878,0.2574,
6.421256,-0.0343,0.5079,1.0017,-0.3466,-0.8929,0.1773,-0.2003,-0.0878,0.2574,
6.440497,-0.0343,0.5079,1.0017,-0.3466,-0.8929,0.1773,0.3916,0.0310,0.1954,
6.450048,-0.0343,0.5079,1.0017,-0.2410,-1.0509,1.3115,0.3916,0.0310,0.1954,
6.489181,0.0358,0.6033,0.9707,-0.2410,-1.0509,1.3115,0.3916,0.0310,0.1954,
6.508979,0.0358,0.6033,0.9707,-0.2410,-1.0509,1.3115,0.5030,-0.1411,0.2047,
6.518695,0.0358,0.6033,0.9707,-0.1878,-0.4233,2.0552,0.5030,-0.1411,0.2047,
6.557378,0.0318,0.6552,0.9070,-0.1878,-0.4233,2.0552,0.5030,-0.1411,0.2047,
6.576704,0.0318,0.6552,0.9070,-0.1878,-0.4233,2.0552,0.1911,0.0531,0.0563,
6.586518,0.0318,0.6552,0.9070,0.4912,0.2055,1.0277,0.1911,0.0531,0.0563,
6.625553,-0.0103,0.5869,0.8596,0.4912,0.2055,1.0277,0.1911,0.0531,0.0563,
6.644424,-0.0103,0.5869,0.8596,0.4912,0.2055,1.0277,0.1071,0.4024,-0.0104,
6.654776,-0.0103,0.5869,0.8596,0.2656,0.1966,0.6957,0.1071,0.4024,-0.0104,
6.693654,-0.0018,0.5198,0.7919,0.2656,0.1966,0.6957,0.1071,0.4024,-0.0104,
6.713049,-0.0018,0.5198,0.7919,0.2656,0.1966,0.6957,0.4945,0.6590,0.0716,
6.723142,-0.0018,0.5198,0.7919,0.4041,-0.9809,0.8040,0.4945,0.6590,0.0716,
6.762276,-0.0650,0.5603,0.7797,0.4041,-0.9809,0.8040,0.4945,0.6590,0.0716,
6.781065,-0.0650,0.5603,0.7797,0.4041,-0.9809,0.8040,0.5695,0.5692,-0.1258,
6.791108,-0.0650,0.5603,0.7797,0.7031,-1.3028,0.1034,0.5695,0.5692,-0.1258,
6.830294,-0.0613,0.6398,0.7862,0.7031,-1.3028,0.1034,0.5695,0.5692,-0.1258,
6.849229,-0.0613,0.6398,0.7862,0.7031,-1.3028,0.1034,-0.0489,0.1770,0.2656,
6.859349,-0.0613,0.6398,0.7862,-0.0605,-0.7803,0.2622,-0.0489,0.1770,0.2656,
6.901003,-0.0556,0.6548,0.7422,-0.0605,-0.7803,0.2622,-0.0489,0.1770,0.2656,
6.919942,-0.0556,0.6548,0.7422,-0.0605,-0.7803,0.2622,-0.1113,0.4532,0.1833,
6.927917,-0.0556,0.6548,0.7422,0.5592,0.0422,0.1229,-0.1113,0.4532,0.1833,
6.968909,-0.1352,0.6532,0.7042,0.5592,0.0422,0.1229,-0.1113,0.4532,0.1833,
6.987314,-0.1352,0.6532,0.7042,0.5592,0.0422,0.1229,-0.0452,0.5889,0.2757,
7.009840,-0.1352,0.6532,0.7042,0.2000,-0.1254,-0.3552,-0.0452,0.5889,0.2757,
7.036813,-0.1913,0.6606,0.7043,0.2000,-0.1254,-0.3552,-0.0452,0.5889,0.2757,
7.055452,-0.1913,0.6606,0.7043,0.2000,-0.1254,-0.3552,-0.0757,0.5660,0.4105,
7.065430,-0.1913,0.6606,0.7043,-0.3715,0.0089,-0.5248,-0.0757,0.5660,0.4105,
7.105202,-0.2212,0.6666,0.7179,-0.3715,0.0089,-0.5248,-0.0757,0.5660,0.4105,
7.124714,-0.2212,0.6666,0.7179,-0.3715,0.0089,-0.5248,-0.0579,0.7120,0.5764,
7.134577,-0.2212,0.6666,0.7179,-0.6611,-0.0023,-0.4265,-0.0579,0.7120,0.5764,
7.172919,-0.1961,0.6594,0.7648,-0.6611,-0.0023,-0.4265,-0.0579,0.7120,0.5764,
7.192239,-0.1961,0.6594,0.7648,-0.6611,-0.0023,-0.4265,0.0015,0.8032,0.6321,
7.202817,-0.1961,0.6594,0.7648,-0.6950,-0.0135,-0.0450,0.0015,0.8032,0.6321,
7.241254,-0.2245,0.6694,0.7600,-0.6950,-0.0135,-0.0450,0.0015,0.8032,0.6321,
7.258908,-0.2245,0.6694,0.7600,-0.6950,-0.0135,-0.0450,-0.0350,1.1243,0.6263,
7.269376,-0.2245,0.6694,0.7600,-0.0566,-0.1656,0.4192,-0.0350,1.1243,0.6263,
7.309264,-0.2335,0.6948,0.8367,-0.0566,-0.1656,0.4192,-0.0350,1.1243,0.6263,
7.327625,-0.2335,0.6948,0.8367,-0.0566,-0.1656,0.4192,-0.4253,0.6907,0.4498,
7.338643,-0.2335,0.6948,0.8367,-0.6103,0.4572,0.0929,-0.4253,0.6907,0.4498,
7.377416,-0.2588,0.5217,0.9421,-0.6103,0.4572,0.0929,-0.4253,0.6907,0.4498,
7.396556,-0.2588,0.5217,0.9421,-0.6103,0.4572,0.0929,-0.4746,1.1579,0.6615,
7.405079,-0.2588,0.5217,0.9421,0.0218,-0.2002,1.6472,-0.4746,1.1579,0.6615,
7.447900,-0.2724,0.4975,0.7811,0.0218,-0.2002,1.6472,-0.4746,1.1579,0.6615,
7.465615,-0.2724,0.4975,0.7811,0.0218,-0.2002,1.6472,0.2622,1.1659,0.9588,
7.477213,-0.2724,0.4975,0.7811,-0.3072,-1.7963,1.7098,0.2622,1.1659,0.9588,
7.514291,-0.2364,0.5463,0.7843,-0.3072,-1.7963,1.7098,0.2622,1.1659,0.9588,
7.532942,-0.2364,0.5463,0.7843,-0.3072,-1.7963,1.7098,-0.2763,0.5430,0.6159,
7.542259,-0.2364,0.5463,0.7843,-0.4287,-1.1802,-0.0080,-0.2763,0.5430,0.6159,
7.582892,-0.1796,0.4725,0.9077,-0.4287,-1.1802,-0.0080,-0.2763,0.5430,0.6159,
7.601847,-0.1796,0.4725,0.9077,-0.4287,-1.1802,-0.0080,-0.7906,0.8602,0.3145,
7.612879,-0.1796,0.4725,0.9077,0.8240,-1.0329,1.1079,-0.7906,0.8602,0.3145,
7.650648,-0.2444,0.4829,0.7964,0.8240,-1.0329,1.1079,-0.7906,0.8602,0.3145,
7.670228,-0.2444,0.4829,0.7964,0.8240,-1.0329,1.1079,-0.4219,0.7440,0.5253,
7.679040,-0.2444,0.4829,0.7964,0.7023,-1.4433,1.1811,-0.4219,0.7440,0.5253,
7.719237,-0.2166,0.5578,0.7225,0.7023,-1.4433,1.1811,-0.4219,0.7440,0.5253,
7.738265,-0.2166,0.5578,0.7225,0.7023,-1.4433,1.1811,-0.1287,0.1441,0.6268,
7.747951,-0.2166,0.5578,0.7225,0.0935,-1.0299,-0.1277,-0.1287,0.1441,0.6268,
7.787675,-0.1960,0.6176,0.7276,0.0935,-1.0299,-0.1277,-0.1287,0.1441,0.6268,
7.806258,-0.1960,0.6176,0.7276,0.0935,-1.0299,-0.1277,-0.3208,-0.2088,0.1764,
7.814984,-0.1960,0.6176,0.7276,0.4208,-0.0612,-0.5790,-0.3208,-0.2088,0.1764,
7.855543,-0.1649,0.6104,0.8726,0.4208,-0.0612,-0.5790,-0.3208,-0.2088,0.1764,
7.874693,-0.1649,0.6104,0.8726,0.4208,-0.0612,-0.5790,-1.0316,-1.0108,0.1513,
7.884133,-0.1649,0.6104,0.8726,-0.2476,0.9517,-0.4979,-1.0316,-1.0108,0.1513,
7.925025,-0.0857,0.5075,0.9083,-0.2476,0.9517,-0.4979,-1.0316,-1.0108,0.1513,
7.942075,-0.0857,0.5075,0.9083,-0.2476,0.9517,-0.4979,-1.3219,-1.0873,0.3438,
7.952681,-0.0857,0.5075,0.9083,-0.2602,0.9603,-0.1164,-1.3219,-1.0873,0.3438,
7.991649,-0.1106,0.3888,0.9925,-0.2602,0.9603,-0.1164,-1.3219,-1.0873,0.3438,
8.011320,-0.1106,0.3888,0.9925,-0.2602,0.9603,-0.1164,-1.3058,-0.2794,1.1753,
8.020154,-0.1106,0.3888,0.9925,-0.3068,0.6074,0.4538,-1.3058,-0.2794,1.1753,
8.060346,-0.1075,0.2359,1.0788,-0.3068,0.6074,0.4538,-1.3058,-0.2794,1.1753,
8.078803,-0.1075,0.2359,1.0788,-0.3068,0.6074,0.4538,-0.4730,-0.0193,0.5444,
8.088884,-0.1075,0.2359,1.0788,-0.7948,-0.4069,0.6459,-0.4730,-0.0193,0.5444,
8.128458,-0.0418,0.2832,0.8173,-0.7948,-0.4069,0.6459,-0.4730,-0.0193,0.5444,
8.147545,-0.0418,0.2832,0.8173,-0.7948,-0.4069,0.6459,1.2686,-0.5577,1.0455,
8.158376,-0.0418,0.2832,0.8173,-1.1337,-2.4969,1.4485,1.2686,-0.5577,1.0455,
8.196906,-0.0947,0.4038,0.7381,-1.1337,-2.4969,1.4485,1.2686,-0.5577,1.0455,
8.215114,-0.0947,0.4038,0.7381,-1.1337,-2.4969,1.4485,2.2237,-0.2106,0.6212,
8.225912,-0.0947,0.4038,0.7381,-1.0034,-2.3261,-1.1568,2.2237,-0.2106,0.6212,
8.265699,0.0496,0.6079,0.7292,-1.0034,-2.3261,-1.1568,2.2237,-0.2106,0.6212,
8.284039,0.0496,0.6079,0.7292,-1.0034,-2.3261,-1.1568,0.2915,0.1145,0.3650,
8.293393,0.0496,0.6079,0.7292,-1.0136,-0.9828,-0.8683,0.2915,0.1145,0.3650,
8.333334,-0.0429,0.4802,0.8791,-1.0136,-0.9828,-0.8683,0.2915,0.1145,0.3650,
8.352723,-0.0429,0.4802,0.8791,-1.0136,-0.9828,-0.8683,-0.9485,-0.1383,1.0156,
8.361826,-0.0429,0.4802,0.8791,-0.8397,0.8074,-0.5788,-0.9485,-0.1383,1.0156,
8.401619,-0.0785,0.4755,0.9237,-0.8397,0.8074,-0.5788,-0.9485,-0.1383,1.0156,
8.420738,-0.0785,0.4755,0.9237,-0.8397,0.8074,-0.5788,0.9212,0.5472,0.9254,
8.432222,-0.0785,0.4755,0.9237,-1.7815,-1.0520,1.1802,0.9212,0.5472,0.9254,
8.469061,-0.1644,0.4017,0.8552,-1.7815,-1.0520,1.1802,0.9212,0.5472,0.9254,
8.488866,-0.1644,0.4017,0.8552,-1.7815,-1.0520,1.1802,0.7168,0.8220,2.0284,
8.497754,-0.1644,0.4017,0.8552,-2.4662,-1.8214,1.1192,0.7168,0.8220,2.0284,
8.539394,-0.0683,0.3618,0.6386,-2.4662,-1.8214,1.1192,0.7168,0.8220,2.0284,
8.556974,-0.0683,0.3618,0.6386,-2.4662,-1.8214,1.1192,0.8125,1.5451,3.3540,
8.566158,-0.0683,0.3618,0.6386,-3.1158,-1.7658,-0.1866,0.8125,1.5451,3.3540,
8.606138,-0.0506,0.1718,0.3970,-3.1158,-1.7658,-0.1866,0.8125,1.5451,3.3540,
8.625534,-0.0506,0.1718,0.3970,-3.1158,-1.7658,-0.1866,-0.4271,0.8233,4.1166,
8.636687,-0.0506,0.1718,0.3970,-4.0629,-1.8983,-3.1351,-0.4271,0.8233,4.1166,
8.674655,0.3048,0.0165,0.6165,-4.0629,-1.8983,-3.1351,-0.4271,0.8233,4.1166,
8.693256,0.3048,0.0165,0.6165,-4.0629,-1.8983,-3.1351,-1.3430,0.0465,4.0647,
8.701953,0.3048,0.0165,0.6165,-2.9541,-1.8708,-4.1241,-1.3430,0.0465,4.0647,
8.742883,0.7535,0.1171,1.2075,-2.9541,-1.8708,-4.1241,-1.3430,0.0465,4.0647,
8.761461,0.7535,0.1171,1.2075,-2.9541,-1.8708,-4.1241,-1.7731,-0.9472,2.8423,
8.771308,0.7535,0.1171,1.2075,-0.0003,-0.6488,0.7096,-1.7731,-0.9472,2.8423,
8.811090,0.5327,-0.1078,1.3418,-0.0003,-0.6488,0.7096,-1.7731,-0.9472,2.8423,
8.830781,0.5327,-0.1078,1.3418,-0.0003,-0.6488,0.7096,0.3478,-1.8293,3.2662,
8.838593,0.5327,-0.1078,1.3418,-0.1299,-0.2051,6.0131,0.3478,-1.8293,3.2662,
8.879130,0.9502,-0.0197,1.0062,-0.1299,-0.2051,6.0131,0.3478,-1.8293,3.2662,
8.898680,0.9502,-0.0197,1.0062,-0.1299,-0.2051,6.0131,0.4560,-1.8345,2.1984,
8.907834,0.9502,-0.0197,1.0062,0.3844,0.0738,3.7974,0.4560,-1.8345,2.1984,
8.947093,1.0102,-0.0905,0.9236,0.3844,0.0738,3.7974,0.4560,-1.8345,2.1984,
8.965780,1.0102,-0.0905,0.9236,0.3844,0.0738,3.7974,0.2430,-0.2708,1.0426,
8.975241,1.0102,-0.0905,0.9236,2.4555,0.3956,3.6437,0.2430,-0.2708,1.0426,
9.015109,0.8434,-0.2490,0.9845,2.4555,0.3956,3.6437,0.2430,-0.2708,1.0426,
9.035384,0.8434,-0.2490,0.9845,2.4555,0.3956,3.6437,0.3480,-0.7937,0.5381,
9.043599,0.8434,-0.2490,0.9845,1.9622,-0.5639,2.4693,0.3480,-0.7937,0.5381,
9.083532,0.7853,-0.3207,0.7301,1.9622,-0.5639,2.4693,0.3480,-0.7937,0.5381,
9.102088,0.7853,-0.3207,0.7301,1.9622,-0.5639,2.4693,1.6297,-1.3503,0.2434,
9.111666,0.7853,-0.3207,0.7301,-0.1284,-2.5373,3.2913,1.6297,-1.3503,0.2434,
9.152066,0.4677,-0.4473,0.3844,-0.1284,-2.5373,3.2913,1.6297,-1.3503,0.2434,
9.171402,0.4677,-0.4473,0.3844,-0.1284,-2.5373,3.2913,3.0774,-2.1260,0.3515,
9.180903,0.4677,-0.4473,0.3844,-2.1991,-4.0088,1.2934,3.0774,-2.1260,0.3515,
9.220725,0.2802,-0.5370,-0.0270,-2.1991,-4.0088,1.2934,3.0774,-2.1260,0.3515,
9.238133,0.2802,-0.5370,-0.0270,-2.1991,-4.0088,1.2934,2.4906,-1.9234,2.2251,
9.247760,0.2802,-0.5370,-0.0270,-5.8679,-4.2312,-1.4211,2.4906,-1.9234,2.2251,
9.288541,0.5802,-0.7079,-0.0025,-5.8679,-4.2312,-1.4211,2.4906,-1.9234,2.2251,
9.307405,0.5802,-0.7079,-0.0025,-5.8679,-4.2312,-1.4211,0.5888,-1.4063,3.5995,
9.318244,0.5802,-0.7079,-0.0025,-5.4513,-2.8344,-3.2301,0.5888,-1.4063,3.5995,
9.356764,0.9384,-0.9290,0.1876,-5.4513,-2.8344,-3.2301,0.5888,-1.4063,3.5995,
9.376823,0.9384,-0.9290,0.1876,-5.4513,-2.8344,-3.2301,-0.8357,-1.2404,3.7349,
9.385620,0.9384,-0.9290,0.1876,-0.7384,-2.8844,-0.7309,-0.8357,-1.2404,3.7349,
9.424781,1.1768,-0.8930,0.3758,-0.7384,-2.8844,-0.7309,-0.8357,-1.2404,3.7349,
9.444384,1.1768,-0.8930,0.3758,-0.7384,-2.8844,-0.7309,-1.1692,-0.7652,2.6884,
9.453693,1.1768,-0.8930,0.3758,3.1868,-2.5980,2.3254,-1.1692,-0.7652,2.6884,
9.493398,1.1618,-0.8666,0.3076,3.1868,-2.5980,2.3254,-1.1692,-0.7652,2.6884,
9.513059,1.1618,-0.8666,0.3076,3.1868,-2.5980,2.3254,-1.7024,1.3101,1.0203,
9.521507,1.1618,-0.8666,0.3076,4.9933,-1.2857,2.7882,-1.7024,1.3101,1.0203,
9.562213,0.8924,-0.8454,0.2861,4.9933,-1.2857,2.7882,-1.7024,1.3101,1.0203,
9.580875,0.8924,-0.8454,0.2861,4.9933,-1.2857,2.7882,-1.6337,2.7154,0.6018,
9.592305,0.8924,-0.8454,0.2861,3.8833,-1.1699,1.8295,-1.6337,2.7154,0.6018,
9.630166,0.7565,-0.6306,0.2190,3.8833,-1.1699,1.8295,-1.6337,2.7154,0.6018,
9.648273,0.7565,-0.6306,0.2190,3.8833,-1.1699,1.8295,-1.2852,1.8222,0.8220,
9.659295,0.7565,-0.6306,0.2190,2.0649,0.5639,1.3599,-1.2852,1.8222,0.8220,
9.699480,0.8364,-0.5297,0.2313,2.0649,0.5639,1.3599,-1.2852,1.8222,0.8220,
9.718637,0.8364,-0.5297,0.2313,2.0649,0.5639,1.3599,-0.6688,0.1323,1.0238,
9.725790,0.8364,-0.5297,0.2313,2.1942,2.7312,1.4276,-0.6688,0.1323,1.0238,
9.766691,0.9802,-0.6123,0.2707,2.1942,2.7312,1.4276,-0.6688,0.1323,1.0238,
9.785547,0.9802,-0.6123,0.2707,2.1942,2.7312,1.4276,-0.0651,-0.5541,1.0531,
9.794322,0.9802,-0.6123,0.2707,3.8886,3.2615,1.4813,-0.0651,-0.5541,1.0531,
9.834967,1.0946,-0.6383,0.2693,3.8886,3.2615,1.4813,-0.0651,-0.5541,1.0531,
9.853864,1.0946,-0.6383,0.2693,3.8886,3.2615,1.4813,1.1014,-1.1207,0.5314,
9.862804,1.0946,-0.6383,0.2693,5.4575,2.4532,1.8157,1.1014,-1.1207,0.5314,
9.902875,1.0099,-0.6330,0.1035,5.4575,2.4532,1.8157,1.1014,-1.1207,0.5314,
9.921400,1.0099,-0.6330,0.1035,5.4575,2.4532,1.8157,1.3743,-0.6512,-0.4658,
9.930643,1.0099,-0.6330,0.1035,5.3872,2.1128,0.2749,1.3743,-0.6512,-0.4658,
9.971254,0.8416,-0.6736,0.0730,5.3872,2.1128,0.2749,1.3743,-0.6512,-0.4658,
9.991523,0.8416,-0.6736,0.0730,5.3872,2.1128,0.2749,1.0571,-0.8433,-1.0061,
9.999577,0.8416,-0.6736,0.0730,3.1872,1.3249,-1.0707,1.0571,-0.8433,-1.0061,
10.039021,0.7193,-0.6974,0.1695,3.1872,1.3249,-1.0707,1.0571,-0.8433,-1.0061,
10.059540,0.7193,-0.6974,0.1695,3.1872,1.3249,-1.0707,0.5151,-1.2336,-1.1537,
10.069079,0.7193,-0.6974,0.1695,0.9069,0.4937,-0.6827,0.5151,-1.2336,-1.1537,
10.107836,0.6203,-0.6704,0.3592,0.9069,0.4937,-0.6827,0.5151,-1.2336,-1.1537,
10.127142,0.6203,-0.6704,0.3592,0.9069,0.4937,-0.6827,1.0278,-1.3145,-1.2813,
10.135443,0.6203,-0.6704,0.3592,-0.7587,-0.3939,1.0680,1.0278,-1.3145,-1.2813,
10.175942,0.6096,-0.6232,0.3270,-0.7587,-0.3939,1.0680,1.0278,-1.3145,-1.2813,
10.193363,0.6096,-0.6232,0.3270,-0.7587,-0.3939,1.0680,1.8155,-1.7215,-1.2581,
10.205662,0.6096,-0.6232,0.3270,-2.2603,-0.7248,2.4986,1.8155,-1.7215,-1.2581,
10.244346,0.7081,-0.7573,0.2687,-2.2603,-0.7248,2.4986,1.8155,-1.7215,-1.2581,
10.262510,0.7081,-0.7573,0.2687,-2.2603,-0.7248,2.4986,1.4237,-1.8464,-0.7322,
10.273219,0.7081,-0.7573,0.2687,-2.3021,-0.7858,1.8726,1.4237,-1.8464,-0.7322,
10.312844,0.6629,-0.7271,0.5054,-2.3021,-0.7858,1.8726,1.4237,-1.8464,-0.7322,
10.331367,0.6629,-0.7271,0.5054,-2.3021,-0.7858,1.8726,1.7996,-1.4996,0.8919,
10.341233,0.6629,-0.7271,0.5054,-1.1259,-2.3478,2.6265,1.7996,-1.4996,0.8919,
10.380731,0.7995,-0.6787,0.4407,-1.1259,-2.3478,2.6265,1.7996,-1.4996,0.8919,
10.398769,0.7995,-0.6787,0.4407,-1.1259,-2.3478,2.6265,3.0942,-1.7889,0.8265,
10.409822,0.7995,-0.6787,0.4407,-0.6804,-0.8657,4.3632,3.0942,-1.7889,0.8265,
10.447242,0.6779,-0.5550,0.1537,-0.6804,-0.8657,4.3632,3.0942,-1.7889,0.8265,
10.467112,0.6779,-0.5550,0.1537,-0.6804,-0.8657,4.3632,3.0464,-1.6113,0.6254,
10.480796,0.6779,-0.5550,0.1537,-0.3863,-0.0349,1.2310,3.0464,-1.6113,0.6254,
10.515310,0.6767,-0.6882,0.1275,-0.3863,-0.0349,1.2310,3.0464,-1.6113,0.6254,
10.534513,0.6767,-0.6882,0.1275,-0.3863,-0.0349,1.2310,1.6968,-1.9114,0.3920,
10.544850,0.6767,-0.6882,0.1275,-1.2057,0.6116,0.1510,1.6968,-1.9114,0.3920,
10.584680,0.6806,-0.8249,0.3034,-1.2057,0.6116,0.1510,1.6968,-1.9114,0.3920,
10.604278,0.6806,-0.8249,0.3034,-1.2057,0.6116,0.1510,0.8973,-1.6693,1.1766,
10.614115,0.6806,-0.8249,0.3034,-0.6524,-1.0520,1.2061,0.8973,-1.6693,1.1766,
10.653304,0.8562,-0.6793,0.3294,-0.6524,-1.0520,1.2061,0.8973,-1.6693,1.1766,
10.671135,0.8562,-0.6793,0.3294,-0.6524,-1.0520,1.2061,0.7335,-1.7044,1.0767,
10.681255,0.8562,-0.6793,0.3294,0.2978,-0.3085,3.1336,0.7335,-1.7044,1.0767,
10.720402,0.9459,-0.6404,0.2968,0.2978,-0.3085,3.1336,0.7335,-1.7044,1.0767,
10.740023,0.9459,-0.6404,0.2968,0.2978,-0.3085,3.1336,0.1461,-0.7878,-0.4654,
10.750737,0.9459,-0.6404,0.2968,1.9619,0.5567,3.0428,0.1461,-0.7878,-0.4654,
10.788733,0.7196,-0.7016,0.3332,1.9619,0.5567,3.0428,0.1461,-0.7878,-0.4654,
10.808121,0.7196,-0.7016,0.3332,1.9619,0.5567,3.0428,-0.0367,0.4206,-1.2965,
10.817428,0.7196,-0.7016,0.3332,0.6429,-0.4342,2.6541,-0.0367,0.4206,-1.2965,
10.858728,0.5440,-0.6712,0.2383,0.6429,-0.4342,2.6541,-0.0367,0.4206,-1.2965,
10.876084,0.5440,-0.6712,0.2383,0.6429,-0.4342,2.6541,0.2536,0.9077,-1.0010,
10.885670,0.5440,-0.6712,0.2383,-1.8660,-1.1485,2.0833,0.2536,0.9077,-1.0010,
10.925897,0.5010,-0.6571,0.1431,-1.8660,-1.1485,2.0833,0.2536,0.9077,-1.0010,
10.944568,0.5010,-0.6571,0.1431,-1.8660,-1.1485,2.0833,0.2826,0.5665,-0.1890,
10.953868,0.5010,-0.6571,0.1431,-3.2225,-0.6249,0.5560,0.2826,0.5665,-0.1890,
10.993192,0.6942,-0.8202,0.0849,-3.2225,-0.6249,0.5560,0.2826,0.5665,-0.1890,
11.012181,0.6942,-0.8202,0.0849,-3.2225,-0.6249,0.5560,-0.2979,0.0362,0.6284,
11.022448,0.6942,-0.8202,0.0849,-2.2462,-1.1280,-0.2742,-0.2979,0.0362,0.6284,
11.061844,0.8574,-0.8295,0.0996,-2.2462,-1.1280,-0.2742,-0.2979,0.0362,0.6284,
11.080611,0.8574,-0.8295,0.0996,-2.2462,-1.1280,-0.2742,-0.4043,0.4545,0.4617,
11.091476,0.8574,-0.8295,0.0996,0.3172,-1.7611,-0.2326,-0.4043,0.4545,0.4617,
11.128996,0.7976,-0.8361,0.0363,0.3172,-1.7611,-0.2326,-0.4043,0.4545,0.4617,
11.148954,0.7976,-0.8361,0.0363,0.3172,-1.7611,-0.2326,-0.2187,0.5233,0.5986,
11.158525,0.7976,-0.8361,0.0363,1.0180,-1.6676,-0.8100,-0.2187,0.5233,0.5986,
11.197701,0.8195,-0.5952,-0.0122,1.0180,-1.6676,-0.8100,-0.2187,0.5233,0.5986,
11.218163,0.8195,-0.5952,-0.0122,1.0180,-1.6676,-0.8100,-0.2128,0.0347,0.4598,
11.226866,0.8195,-0.5952,-0.0122,0.7864,-0.3372,-1.1122,-0.2128,0.0347,0.4598,
11.266228,0.7562,-0.5682,0.0402,0.7864,-0.3372,-1.1122,-0.2128,0.0347,0.4598,
11.285248,0.7562,-0.5682,0.0402,0.7864,-0.3372,-1.1122,-0.7509,0.0932,-0.2752,
11.294792,0.7562,-0.5682,0.0402,0.6751,1.5533,-1.1453,-0.7509,0.0932,-0.2752,
11.333435,0.7164,-0.7317,0.1524,0.6751,1.5533,-1.1453,-0.7509,0.0932,-0.2752,
11.353483,0.7164,-0.7317,0.1524,0.6751,1.5533,-1.1453,-0.7083,0.1221,-0.2563,
11.363613,0.7164,-0.7317,0.1524,-0.1393,0.2402,0.2703,-0.7083,0.1221,-0.2563,
11.402401,0.6650,-0.6532,0.1357,-0.1393,0.2402,0.2703,-0.7083,0.1221,-0.2563,
11.421642,0.6650,-0.6532,0.1357,-0.1393,0.2402,0.2703,-0.4812,0.4187,-0.2039,
11.431640,0.6650,-0.6532,0.1357,-0.5103,-0.2302,0.7456,-0.4812,0.4187,-0.2039,
11.470769,0.6019,-0.6182,0.0939,-0.5103,-0.2302,0.7456,-0.4812,0.4187,-0.2039,
11.490044,0.6019,-0.6182,0.0939,-0.5103,-0.2302,0.7456,-0.1745,0.4523,0.0187,
11.508022,0.6019,-0.6182,0.0939,-1.0757,0.4707,0.2310,-0.1745,0.4523,0.0187,
11.539500,0.6079,-0.6103,0.0970,-1.0757,0.4707,0.2310,-0.1745,0.4523,0.0187,
11.558909,0.6079,-0.6103,0.0970,-1.0757,0.4707,0.2310,0.2916,-0.0694,0.3916,
11.569791,0.6079,-0.6103,0.0970,-1.2196,0.8309,-0.1686,0.2916,-0.0694,0.3916,
11.607370,0.6497,-0.6044,0.0290,-1.2196,0.8309,-0.1686,0.2916,-0.0694,0.3916,
11.626778,0.6497,-0.6044,0.0290,-1.2196,0.8309,-0.1686,0.5417,-0.3518,0.6732,
11.637286,0.6497,-0.6044,0.0290,-0.6202,1.2060,-0.3666,0.5417,-0.3518,0.6732,
11.676010,0.7006,-0.6648,0.0727,-0.6202,1.2060,-0.3666,0.5417,-0.3518,0.6732,
11.694638,0.7006,-0.6648,0.0727,-0.6202,1.2060,-0.3666,0.7410,-0.5316,0.9003,
11.704474,0.7006,-0.6648,0.0727,0.2511,1.3953,-0.8706,0.7410,-0.5316,0.9003,
11.743202,0.8473,-0.7797,0.0360,0.2511,1.3953,-0.8706,0.7410,-0.5316,0.9003,
11.762546,0.8473,-0.7797,0.0360,0.2511,1.3953,-0.8706,1.0133,-0.8976,0.9816,
11.772170,0.8473,-0.7797,0.0360,1.1629,0.9693,-0.5364,1.0133,-0.8976,0.9816,
11.811259,1.0633,-0.8298,-0.1084,1.1629,0.9693,-0.5364,1.0133,-0.8976,0.9816,
11.830162,1.0633,-0.8298,-0.1084,1.1629,0.9693,-0.5364,0.0832,-0.8508,0.4680,
11.840835,1.0633,-0.8298,-0.1084,3.8085,-0.7821,-1.4227,0.0832,-0.8508,0.4680,
11.879445,1.0205,-0.4232,0.1130,3.8085,-0.7821,-1.4227,0.0832,-0.8508,0.4680,
11.898607,1.0205,-0.4232,0.1130,3.8085,-0.7821,-1.4227,-0.0479,-0.4994,-0.7430,
11.908931,1.0205,-0.4232,0.1130,3.7884,1.3446,-1.1131,-0.0479,-0.4994,-0.7430,
11.947994,0.8390,-0.6942,0.0088,3.7884,1.3446,-1.1131,-0.0479,-0.4994,-0.7430,
11.966836,0.8390,-0.6942,0.0088,3.7884,1.3446,-1.1131,0.6989,-1.3513,-1.3833,
11.977430,0.8390,-0.6942,0.0088,2.1484,2.3400,0.8141,0.6989,-1.3513,-1.3833,
12.017098,1.0864,-0.9040,0.0015,2.1484,2.3400,0.8141,0.6989,-1.3513,-1.3833,
12.035183,1.0864,-0.9040,0.0015,2.1484,2.3400,0.8141,-0.1138,-1.8409,-0.6247,
12.045105,1.0864,-0.9040,0.0015,1.0237,-1.8358,0.1149,-0.1138,-1.8409,-0.6247,
12.084850,1.1180,-0.8001,0.1771,1.0237,-1.8358,0.1149,-0.1138,-1.8409,-0.6247,
12.102989,1.1180,-0.8001,0.1771,1.0237,-1.8358,0.1149,-0.4574,-0.4808,-1.6825,
12.113315,1.1180,-0.8001,0.1771,3.1985,-2.8512,1.7464,-0.4574,-0.4808,-1.6825,
12.152283,0.8512,-0.7772,0.0919,3.1985,-2.8512,1.7464,-0.4574,-0.4808,-1.6825,
12.171480,0.8512,-0.7772,0.0919,3.1985,-2.8512,1.7464,0.0234,-0.2706,-2.5353,
12.181643,0.8512,-0.7772,0.0919,0.7647,-3.5882,2.6307,0.0234,-0.2706,-2.5353,
12.220705,0.6554,-0.8272,-0.0202,0.7647,-3.5882,2.6307,0.0234,-0.2706,-2.5353,
12.239777,0.6554,-0.8272,-0.0202,0.7647,-3.5882,2.6307,0.0948,-0.5432,-2.2709,
12.249646,0.6554,-0.8272,-0.0202,-2.1436,-5.1472,1.7793,0.0948,-0.5432,-2.2709,
12.288704,0.5123,-0.7616,-0.0638,-2.1436,-5.1472,1.7793,0.0948,-0.5432,-2.2709,
12.307951,0.5123,-0.7616,-0.0638,-2.1436,-5.1472,1.7793,-0.4837,0.2100,-1.5049,
12.317947,0.5123,-0.7616,-0.0638,-3.9877,-5.9335,0.5914,-0.4837,0.2100,-1.5049,
12.357891,0.3810,-0.6770,-0.0459,-3.9877,-5.9335,0.5914,-0.4837,0.2100,-1.5049,
12.376883,0.3810,-0.6770,-0.0459,-3.9877,-5.9335,0.5914,-0.4910,0.3544,-0.3570,
12.386121,0.3810,-0.6770,-0.0459,-5.3481,-5.3313,0.4464,-0.4910,0.3544,-0.3570,
12.425249,0.4627,-0.7484,-0.1425,-5.3481,-5.3313,0.4464,-0.4910,0.3544,-0.3570,
12.444734,0.4627,-0.7484,-0.1425,-5.3481,-5.3313,0.4464,-0.4720,0.1789,0.6805,
12.454257,0.4627,-0.7484,-0.1425,-5.5921,-4.0267,0.4295,-0.4720,0.1789,0.6805,
12.493337,0.5503,-0.9604,-0.1656,-5.5921,-4.0267,0.4295,-0.4720,0.1789,0.6805,
12.512698,0.5503,-0.9604,-0.1656,-5.5921,-4.0267,0.4295,-1.6178,0.8849,2.2097,
12.523986,0.5503,-0.9604,-0.1656,-4.1385,-4.4740,-1.2801,-1.6178,0.8849,2.2097,
12.562045,0.8073,-0.7938,0.0071,-4.1385,-4.4740,-1.2801,-1.6178,0.8849,2.2097,
12.580870,0.8073,-0.7938,0.0071,-4.1385,-4.4740,-1.2801,-1.7431,0.9636,2.9949,
12.590898,0.8073,-0.7938,0.0071,-1.7044,-3.5431,-0.1294,-1.7431,0.9636,2.9949,
12.630038,0.9905,-0.7715,0.0621,-1.7044,-3.5431,-0.1294,-1.7431,0.9636,2.9949,
12.649135,0.9905,-0.7715,0.0621,-1.7044,-3.5431,-0.1294,-1.6009,0.7239,2.1246,
12.659244,0.9905,-0.7715,0.0621,1.7977,-0.5752,1.4004,-1.6009,0.7239,2.1246,
12.698165,0.9437,-0.7605,0.1409,1.7977,-0.5752,1.4004,-1.6009,0.7239,2.1246,
12.717666,0.9437,-0.7605,0.1409,1.7977,-0.5752,1.4004,-1.8677,1.1906,1.5994,
12.730783,0.9437,-0.7605,0.1409,2.7245,-0.5365,2.1777,-1.8677,1.1906,1.5994,
12.767972,0.8646,-0.7125,0.2238,2.7245,-0.5365,2.1777,-1.8677,1.1906,1.5994,
12.787003,0.8646,-0.7125,0.2238,2.7245,-0.5365,2.1777,-1.9745,1.7081,1.0878,
12.797249,0.8646,-0.7125,0.2238,2.7936,0.1950,3.0605,-1.9745,1.7081,1.0878,
12.836807,0.7489,-0.6133,0.2375,2.7936,0.1950,3.0605,-1.9745,1.7081,1.0878,
12.855422,0.7489,-0.6133,0.2375,2.7936,0.1950,3.0605,-1.3965,2.1416,0.9441,
12.865805,0.7489,-0.6133,0.2375,1.8363,1.1068,3.5390,-1.3965,2.1416,0.9441,
12.905386,0.7532,-0.5668,0.1487,1.8363,1.1068,3.5390,-1.3965,2.1416,0.9441,
12.924714,0.7532,-0.5668,0.1487,1.8363,1.1068,3.5390,-0.6215,1.5951,1.0429,
12.933012,0.7532,-0.5668,0.1487,1.4721,2.4115,2.7652,-0.6215,1.5951,1.0429,
12.973211,0.8921,-0.6010,0.0678,1.4721,2.4115,2.7652,-0.6215,1.5951,1.0429,
12.991224,0.8921,-0.6010,0.0678,1.4721,2.4115,2.7652,-0.0246,1.0182,0.9636,
13.001648,0.8921,-0.6010,0.0678,2.6466,2.6895,1.4011,-0.0246,1.0182,0.9636,
13.039947,1.0041,-0.6578,-0.0555,2.6466,2.6895,1.4011,-0.0246,1.0182,0.9636,
13.060054,1.0041,-0.6578,-0.0555,2.6466,2.6895,1.4011,0.5802,0.6932,0.2920,
13.069712,1.0041,-0.6578,-0.0555,4.2137,2.3606,0.0810,0.5802,0.6932,0.2920,
13.109598,1.0184,-0.8599,-0.1670,4.2137,2.3606,0.0810,0.5802,0.6932,0.2920,
13.128536,1.0184,-0.8599,-0.1670,4.2137,2.3606,0.0810,0.5087,0.6182,-0.2227,
13.137846,1.0184,-0.8599,-0.1670,4.4814,1.0434,-2.0279,0.5087,0.6182,-0.2227,
13.179284,0.9535,-0.7734,-0.0927,4.4814,1.0434,-2.0279,0.5087,0.6182,-0.2227,
13.196857,0.9535,-0.7734,-0.0927,4.4814,1.0434,-2.0279,0.0960,0.4402,-0.6162,
13.206846,0.9535,-0.7734,-0.0927,3.9316,-0.3560,-2.4627,0.0960,0.4402,-0.6162,
13.246800,0.8072,-0.7057,0.0816,3.9316,-0.3560,-2.4627,0.0960,0.4402,-0.6162,
13.263632,0.8072,-0.7057,0.0816,3.9316,-0.3560,-2.4627,0.1652,-0.0422,-1.1904,
13.275105,0.8072,-0.7057,0.0816,2.4419,0.0963,-0.9164,0.1652,-0.0422,-1.1904,
13.314207,0.6526,-0.6522,0.0949,2.4419,0.0963,-0.9164,0.1652,-0.0422,-1.1904,
13.333530,0.6526,-0.6522,0.0949,2.4419,0.0963,-0.9164,0.4033,-0.2020,-1.3827,
13.342164,0.6526,-0.6522,0.0949,-0.1698,0.3262,0.0427,0.4033,-0.2020,-1.3827,
13.382898,0.6371,-0.8293,0.0584,-0.1698,0.3262,0.0427,0.4033,-0.2020,-1.3827,
13.400894,0.6371,-0.8293,0.0584,-0.1698,0.3262,0.0427,-0.0567,-0.3018,-1.0293,
13.410627,0.6371,-0.8293,0.0584,-1.5140,-0.4792,-0.1800,-0.0567,-0.3018,-1.0293,
13.451106,0.7196,-0.8215,0.1779,-1.5140,-0.4792,-0.1800,-0.0567,-0.3018,-1.0293,
13.468605,0.7196,-0.8215,0.1779,-1.5140,-0.4792,-0.1800,-0.5188,-0.4878,-0.4507,
13.480549,0.7196,-0.8215,0.1779,-1.1281,-2.5449,0.6867,-0.5188,-0.4878,-0.4507,
13.518642,0.7018,-0.7516,0.3178,-1.1281,-2.5449,0.6867,-0.5188,-0.4878,-0.4507,
13.537768,0.7018,-0.7516,0.3178,-1.1281,-2.5449,0.6867,0.0613,-0.2332,-0.7362,
13.547670,0.7018,-0.7516,0.3178,-0.9734,-1.7707,2.1915,0.0613,-0.2332,-0.7362,
13.587038,0.5834,-0.7446,0.1587,-0.9734,-1.7707,2.1915,0.0613,-0.2332,-0.7362,
13.606687,0.5834,-0.7446,0.1587,-0.9734,-1.7707,2.1915,1.0797,-0.4983,-0.6961,
13.616330,0.5834,-0.7446,0.1587,-1.9572,-1.9783,2.3383,1.0797,-0.4983,-0.6961,
13.655492,0.5349,-0.6914,-0.0123,-1.9572,-1.9783,2.3383,1.0797,-0.4983,-0.6961,
13.673276,0.5349,-0.6914,-0.0123,-1.9572,-1.9783,2.3383,0.6109,-0.2670,-0.2492,
13.686999,0.5349,-0.6914,-0.0123,-2.9897,-1.7646,-0.0244,0.6109,-0.2670,-0.2492,
13.724028,0.5230,-0.6578,0.0116,-2.9897,-1.7646,-0.0244,0.6109,-0.2670,-0.2492,
13.742822,0.5230,-0.6578,0.0116,-2.9897,-1.7646,-0.0244,-0.0760,0.2831,0.1040,
13.751507,0.5230,-0.6578,0.0116,-2.9921,-1.1926,-0.8189,-0.0760,0.2831,0.1040,
13.791963,0.5215,-0.7028,0.0866,-2.9921,-1.1926,-0.8189,-0.0760,0.2831,0.1040,
13.810833,0.5215,-0.7028,0.0866,-2.9921,-1.1926,-0.8189,-0.2643,0.4584,0.6781,
13.821526,0.5215,-0.7028,0.0866,-2.8969,-0.5298,-0.3858,-0.2643,0.4584,0.6781,
13.860647,0.6850,-0.8578,0.0435,-2.8969,-0.5298,-0.3858,-0.2643,0.4584,0.6781,
13.878859,0.6850,-0.8578,0.0435,-2.8969,-0.5298,-0.3858,-0.4184,0.4176,1.2193,
13.888461,0.6850,-0.8578,0.0435,-1.6387,-0.9604,0.0298,-0.4184,0.4176,1.2193,
13.928579,0.8951,-1.1275,0.0881,-1.6387,-0.9604,0.0298,-0.4184,0.4176,1.2193,
13.947274,0.8951,-1.1275,0.0881,-1.6387,-0.9604,0.0298,-1.5288,0.8395,1.3152,
13.957326,0.8951,-1.1275,0.0881,1.2708,-2.4252,-0.2306,-1.5288,0.8395,1.3152,
13.998208,0.8216,-0.7912,0.2695,1.2708,-2.4252,-0.2306,-1.5288,0.8395,1.3152,
14.015352,0.8216,-0.7912,0.2695,1.2708,-2.4252,-0.2306,-1.1127,1.3960,1.3523,
14.025538,0.8216,-0.7912,0.2695,2.5094,-2.2639,1.1665,-1.1127,1.3960,1.3523,
14.065055,0.8331,-0.5231,0.1806,2.5094,-2.2639,1.1665,-1.1127,1.3960,1.3523,
14.083908,0.8331,-0.5231,0.1806,2.5094,-2.2639,1.1665,0.2072,0.2445,0.5479,
14.093130,0.8331,-0.5231,0.1806,2.1499,2.0449,1.7762,0.2072,0.2445,0.5479,
14.133231,0.8310,-0.6535,-0.0399,2.1499,2.0449,1.7762,0.2072,0.2445,0.5479,
14.151529,0.8310,-0.6535,-0.0399,2.1499,2.0449,1.7762,-0.3106,-0.0258,-0.5081,
14.161092,0.8310,-0.6535,-0.0399,2.2307,2.3162,0.1840,-0.3106,-0.0258,-0.5081,
14.201672,0.7282,-0.7411,0.0304,2.2307,2.3162,0.1840,-0.3106,-0.0258,-0.5081,
14.219914,0.7282,-0.7411,0.0304,2.2307,2.3162,0.1840,-1.4108,1.2141,-0.9685,
14.229622,0.7282,-0.7411,0.0304,1.0570,0.3794,-0.8582,-1.4108,1.2141,-0.9685,
14.269158,0.6061,-0.7030,0.0577,1.0570,0.3794,-0.8582,-1.4108,1.2141,-0.9685,
14.287512,0.6061,-0.7030,0.0577,1.0570,0.3794,-0.8582,-1.5188,1.8830,-1.3171,
14.299398,0.6061,-0.7030,0.0577,-0.5633,-0.2947,-0.0451,-1.5188,1.8830,-1.3171,
14.337911,0.4956,-0.6796,0.0811,-0.5633,-0.2947,-0.0451,-1.5188,1.8830,-1.3171,
14.357214,0.4956,-0.6796,0.0811,-0.5633,-0.2947,-0.0451,-1.0717,1.6084,-0.9927,
14.365707,0.4956,-0.6796,0.0811,-2.0029,-0.3967,-0.3183,-1.0717,1.6084,-0.9927,
14.406974,0.5006,-0.6255,0.0819,-2.0029,-0.3967,-0.3183,-1.0717,1.6084,-0.9927,
14.424908,0.5006,-0.6255,0.0819,-2.0029,-0.3967,-0.3183,-0.2067,0.5875,-0.0598,
14.434963,0.5006,-0.6255,0.0819,-2.7941,0.0906,-0.1247,-0.2067,0.5875,-0.0598,
14.474629,0.6285,-0.6516,0.0241,-2.7941,0.0906,-0.1247,-0.2067,0.5875,-0.0598,
14.493191,0.6285,-0.6516,0.0241,-2.7941,0.0906,-0.1247,0.2401,0.0575,0.5156,
14.507187,0.6285,-0.6516,0.0241,-1.7025,0.5129,-0.6848,0.2401,0.0575,0.5156,
14.542787,0.7184,-0.6812,0.0197,-1.7025,0.5129,-0.6848,0.2401,0.0575,0.5156,
14.561234,0.7184,-0.6812,0.0197,-1.7025,0.5129,-0.6848,0.1064,-0.0949,0.7387,
14.570659,0.7184,-0.6812,0.0197,-0.1869,0.5757,-1.1631,0.1064,-0.0949,0.7387,
14.610961,0.9092,-0.8884,0.0794,-0.1869,0.5757,-1.1631,0.1064,-0.0949,0.7387,
14.629499,0.9092,-0.8884,0.0794,-0.1869,0.5757,-1.1631,-0.1029,0.3504,0.6748,
14.639758,0.9092,-0.8884,0.0794,1.5251,-0.3115,-0.7848,-0.1029,0.3504,0.6748,
14.679689,0.8212,-0.6055,0.1924,1.5251,-0.3115,-0.7848,-0.1029,0.3504,0.6748,
14.698596,0.8212,-0.6055,0.1924,1.5251,-0.3115,-0.7848,-0.0638,0.4356,0.4313,
14.707682,0.8212,-0.6055,0.1924,2.3752,-0.2525,-0.3953,-0.0638,0.4356,0.4313,
14.747271,0.8164,-0.7136,0.2209,2.3752,-0.2525,-0.3953,-0.0638,0.4356,0.4313,
14.765311,0.8164,-0.7136,0.2209,2.3752,-0.2525,-0.3953,1.2479,-1.0291,-0.1293,
14.776177,0.8164,-0.7136,0.2209,1.4013,1.6900,0.8455,1.2479,-1.0291,-0.1293,
14.814931,0.9304,-0.9084,-0.0062,1.4013,1.6900,0.8455,1.2479,-1.0291,-0.1293,
14.833043,0.9304,-0.9084,-0.0062,1.4013,1.6900,0.8455,0.6832,-1.4872,-0.0289,
14.846241,0.9304,-0.9084,-0.0062,1.5922,-1.2258,-0.1139,0.6832,-1.4872,-0.0289,
14.883844,1.0329,-0.8153,0.1031,1.5922,-1.2258,-0.1139,0.6832,-1.4872,-0.0289,
14.902793,1.0329,-0.8153,0.1031,1.5922,-1.2258,-0.1139,-0.9176,-0.0286,-1.2043,
14.913724,1.0329,-0.8153,0.1031,2.4483,-1.8086,-0.8808,-0.9176,-0.0286,-1.2043,
14.952277,0.7840,-0.8443,0.1858,2.4483,-1.8086,-0.8808,-0.9176,-0.0286,-1.2043,
14.971905,0.7840,-0.8443,0.1858,2.4483,-1.8086,-0.8808,-0.6979,1.3807,-2.3929,
14.980200,0.7840,-0.8443,0.1858,1.0462,-2.6002,0.3544,-0.6979,1.3807,-2.3929,
15.020000,0.5378,-0.8139,0.0576,1.0462,-2.6002,0.3544,-0.6979,1.3807,-2.3929,
15.039207,0.5378,-0.8139,0.0576,1.0462,-2.6002,0.3544,-0.6085,1.0490,-2.2266,
15.047816,0.5378,-0.8139,0.0576,-2.3435,-4.0562,-0.4328,-0.6085,1.0490,-2.2266,
15.088726,0.4330,-0.7432,0.0807,-2.3435,-4.0562,-0.4328,-0.6085,1.0490,-2.2266,
15.107649,0.4330,-0.7432,0.0807,-2.3435,-4.0562,-0.4328,-0.8705,0.3442,-1.3819,
15.116899,0.4330,-0.7432,0.0807,-4.4561,-3.9432,-1.1049,-0.8705,0.3442,-1.3819,
15.156784,0.4187,-0.6876,0.1064,-4.4561,-3.9432,-1.1049,-0.8705,0.3442,-1.3819,
15.175186,0.4187,-0.6876,0.1064,-4.4561,-3.9432,-1.1049,-1.0063,0.2428,-0.3334,
15.185307,0.4187,-0.6876,0.1064,-4.9241,-3.3199,-0.6174,-1.0063,0.2428,-0.3334,
15.225189,0.4394,-0.6874,0.1412,-4.9241,-3.3199,-0.6174,-1.0063,0.2428,-0.3334,
15.244790,0.4394,-0.6874,0.1412,-4.9241,-3.3199,-0.6174,-1.0354,0.5048,0.6192,
15.253630,0.4394,-0.6874,0.1412,-4.5181,-2.2557,-0.3820,-1.0354,0.5048,0.6192,
15.293072,0.5240,-0.8132,0.1168,-4.5181,-2.2557,-0.3820,-1.0354,0.5048,0.6192,
15.311607,0.5240,-0.8132,0.1168,-4.5181,-2.2557,-0.3820,-1.0224,0.6039,1.7566,
15.320686,0.5240,-0.8132,0.1168,-3.4501,-1.5016,-0.1971,-1.0224,0.6039,1.7566,
15.360898,0.7756,-1.1567,0.1626,-3.4501,-1.5016,-0.1971,-1.0224,0.6039,1.7566,
15.379768,0.7756,-1.1567,0.1626,-3.4501,-1.5016,-0.1971,-1.5206,0.5380,2.9651,
15.389559,0.7756,-1.1567,0.1626,-0.2645,-2.2668,-0.0927,-1.5206,0.5380,2.9651,
15.429809,0.9716,-0.9751,0.3361,-0.2645,-2.2668,-0.0927,-1.5206,0.5380,2.9651,
15.448981,0.9716,-0.9751,0.3361,-0.2645,-2.2668,-0.0927,-0.9519,0.4226,2.7743,
15.458284,0.9716,-0.9751,0.3361,3.2334,-2.6379,1.4998,-0.9519,0.4226,2.7743,
15.499016,0.9317,-0.7234,0.2253,3.2334,-2.6379,1.4998,-0.9519,0.4226,2.7743,
15.515319,0.9317,-0.7234,0.2253,3.2334,-2.6379,1.4998,0.0847,0.3021,1.1580,
15.525816,0.9317,-0.7234,0.2253,5.1323,0.3648,2.2362,0.0847,0.3021,1.1580,
15.566825,0.8207,-0.6796,0.0078,5.1323,0.3648,2.2362,0.0847,0.3021,1.1580,
15.584846,0.8207,-0.6796,0.0078,5.1323,0.3648,2.2362,-0.9257,0.8045,0.0192,
15.594768,0.8207,-0.6796,0.0078,3.7626,2.0872,0.2775,-0.9257,0.8045,0.0192,
15.634388,0.7615,-0.7337,0.1435,3.7626,2.0872,0.2775,-0.9257,0.8045,0.0192,
15.652454,0.7615,-0.7337,0.1435,3.7626,2.0872,0.2775,-2.1182,1.4057,-0.9575,
15.662007,0.7615,-0.7337,0.1435,2.3870,1.5204,0.4292,-2.1182,1.4057,-0.9575,
15.702495,0.6721,-0.8268,0.2301,2.3870,1.5204,0.4292,-2.1182,1.4057,-0.9575,
15.721722,0.6721,-0.8268,0.2301,2.3870,1.5204,0.4292,-1.9785,2.1501,-1.5769,
15.731578,0.6721,-0.8268,0.2301,0.9177,-0.0004,2.1507,-1.9785,2.1501,-1.5769,
15.771095,0.5503,-0.7811,0.0906,0.9177,-0.0004,2.1507,-1.9785,2.1501,-1.5769,
15.789352,0.5503,-0.7811,0.0906,0.9177,-0.0004,2.1507,-1.2360,1.9866,-1.7576,
15.799609,0.5503,-0.7811,0.0906,-1.0990,-1.1115,1.7639,-1.2360,1.9866,-1.7576,
15.839433,0.3732,-0.7308,-0.1244,-1.0990,-1.1115,1.7639,-1.2360,1.9866,-1.7576,
15.858912,0.3732,-0.7308,-0.1244,-1.0990,-1.1115,1.7639,-1.1282,1.0090,-1.0413,
15.867230,0.3732,-0.7308,-0.1244,-2.8839,-0.8781,-0.1951,-1.1282,1.0090,-1.0413,
15.906923,0.3933,-0.6549,-0.1407,-2.8839,-0.8781,-0.1951,-1.1282,1.0090,-1.0413,
15.926127,0.3933,-0.6549,-0.1407,-2.8839,-0.8781,-0.1951,-0.9135,0.8716,0.0932,
15.936234,0.3933,-0.6549,-0.1407,-3.8661,-0.3153,-1.5086,-0.9135,0.8716,0.0932,
15.975180,0.5085,-0.7223,-0.1370,-3.8661,-0.3153,-1.5086,-0.9135,0.8716,0.0932,
15.993570,0.5085,-0.7223,-0.1370,-3.8661,-0.3153,-1.5086,-0.7938,1.1212,0.7338,
16.008741,0.5085,-0.7223,-0.1370,-2.5848,0.8712,-1.8020,-0.7938,1.1212,0.7338,
16.043679,0.7176,-1.0822,0.0254,-2.5848,0.8712,-1.8020,-0.7938,1.1212,0.7338,
16.061621,0.7176,-1.0822,0.0254,-2.5848,0.8712,-1.8020,-0.2443,0.3122,1.9010,
16.072238,0.7176,-1.0822,0.0254,-0.0790,-1.2567,-1.1663,-0.2443,0.3122,1.9010,
16.112260,1.0003,-0.8594,0.1228,-0.0790,-1.2567,-1.1663,-0.2443,0.3122,1.9010,
16.130647,1.0003,-0.8594,0.1228,-0.0790,-1.2567,-1.1663,1.1900,-1.6539,1.5032,
16.140282,1.0003,-0.8594,0.1228,3.1410,-1.3151,0.7105,1.1900,-1.6539,1.5032,
16.180347,0.9596,-0.8413,-0.1292,3.1410,-1.3151,0.7105,1.1900,-1.6539,1.5032,
16.198708,0.9596,-0.8413,-0.1292,3.1410,-1.3151,0.7105,1.2115,-1.8255,0.1798,
16.208602,0.9596,-0.8413,-0.1292,4.3427,0.4803,0.0973,1.2115,-1.8255,0.1798,
16.248474,0.9578,-0.8854,-0.2131,4.3427,0.4803,0.0973,1.2115,-1.8255,0.1798,
16.267170,0.9578,-0.8854,-0.2131,4.3427,0.4803,0.0973,-1.2335,0.2811,-1.1233,
16.276536,0.9578,-0.8854,-0.2131,3.5005,-0.8757,-1.8594,-1.2335,0.2811,-1.1233,
16.316041,0.7348,-0.8954,0.0849,3.5005,-0.8757,-1.8594,-1.2335,0.2811,-1.1233,
16.335244,0.7348,-0.8954,0.0849,3.5005,-0.8757,-1.8594,-2.2910,2.1719,-2.4147,
16.344015,0.7348,-0.8954,0.0849,1.1786,-1.8675,-0.5342,-2.2910,2.1719,-2.4147,
16.384796,0.4753,-0.9040,0.1564,1.1786,-1.8675,-0.5342,-2.2910,2.1719,-2.4147,
16.404789,0.4753,-0.9040,0.1564,1.1786,-1.8675,-0.5342,-1.5612,1.8648,-2.5553,
16.412397,0.4753,-0.9040,0.1564,-2.4206,-3.6011,1.4718,-1.5612,1.8648,-2.5553,
16.451914,0.3378,-0.8538,0.0863,-2.4206,-3.6011,1.4718,-1.5612,1.8648,-2.5553,
16.470803,0.3378,-0.8538,0.0863,-2.4206,-3.6011,1.4718,-1.4125,1.0717,-1.5532,
16.480762,0.3378,-0.8538,0.0863,-4.9001,-3.9564,1.1243,-1.4125,1.0717,-1.5532,
16.523860,0.2417,-0.7581,0.1444,-4.9001,-3.9564,1.1243,-1.4125,1.0717,-1.5532,
16.540483,0.2417,-0.7581,0.1444,-4.9001,-3.9564,1.1243,-1.5424,0.8104,0.0833,
16.549563,0.2417,-0.7581,0.1444,-5.8600,-3.2170,0.6372,-1.5424,0.8104,0.0833,
16.589402,0.3657,-0.7231,0.2248,-5.8600,-3.2170,0.6372,-1.5424,0.8104,0.0833,
16.607870,0.3657,-0.7231,0.2248,-5.8600,-3.2170,0.6372,-0.7398,0.4817,1.1436,
16.618068,0.3657,-0.7231,0.2248,-5.3179,-1.4232,1.9365,-0.7398,0.4817,1.1436,
16.658979,0.4038,-0.7877,0.0555,-5.3179,-1.4232,1.9365,-0.7398,0.4817,1.1436,
16.676084,0.4038,-0.7877,0.0555,-5.3179,-1.4232,1.9365,-0.6877,0.7952,2.0262,
16.686510,0.4038,-0.7877,0.0555,-3.2387,-0.4999,1.2147,-0.6877,0.7952,2.0262,
16.726293,0.5462,-0.9643,0.1333,-3.2387,-0.4999,1.2147,-0.6877,0.7952,2.0262,
16.745224,0.5462,-0.9643,0.1333,-3.2387,-0.4999,1.2147,-1.0826,0.8010,3.0868,
16.754786,0.5462,-0.9643,0.1333,-1.1174,-0.1078,0.3950,-1.0826,0.8010,3.0868,
16.794183,0.8556,-1.1170,0.2414,-1.1174,-0.1078,0.3950,-1.0826,0.8010,3.0868,
16.811840,0.8556,-1.1170,0.2414,-1.1174,-0.1078,0.3950,-0.5875,-0.0832,3.4972,
16.822774,0.8556,-1.1170,0.2414,3.1883,-1.1241,2.0954,-0.5875,-0.0832,3.4972,
16.860476,1.1862,-0.9653,0.0895,3.1883,-1.1241,2.0954,-0.5875,-0.0832,3.4972,
16.879671,1.1862,-0.9653,0.0895,3.1883,-1.1241,2.0954,-0.0944,-0.7215,2.5601,
16.889647,1.1862,-0.9653,0.0895,7.6892,-1.0284,2.5770,-0.0944,-0.7215,2.5601,
16.928836,1.2156,-0.8443,-0.0682,7.6892,-1.0284,2.5770,-0.0944,-0.7215,2.5601,
16.948772,1.2156,-0.8443,-0.0682,7.6892,-1.0284,2.5770,-1.2731,1.3262,0.3244,
16.959213,1.2156,-0.8443,-0.0682,10.2456,1.1688,0.7632,-1.2731,1.3262,0.3244,
17.008291,0.9062,-0.9440,0.0384,10.2456,1.1688,0.7632,-1.2731,1.3262,0.3244,
17.018025,0.9062,-0.9440,0.0384,10.2456,1.1688,0.7632,-1.3514,2.4258,-0.6079,
17.026758,0.9062,-0.9440,0.0384,7.4316,0.5764,1.1572,-1.3514,2.4258,-0.6079,
17.065569,0.8079,-0.7864,0.0529,7.4316,0.5764,1.1572,-1.3514,2.4258,-0.6079,
17.085181,0.8079,-0.7864,0.0529,7.4316,0.5764,1.1572,0.1376,0.3813,-0.7962,
17.094422,0.8079,-0.7864,0.0529,4.5975,0.2974,1.7816,0.1376,0.3813,-0.7962,
17.134568,0.8085,-0.7757,-0.1251,4.5975,0.2974,1.7816,0.1376,0.3813,-0.7962,
17.152836,0.8085,-0.7757,-0.1251,4.5975,0.2974,1.7816,1.6139,-1.9129,-1.6135,
17.163548,0.8085,-0.7757,-0.1251,3.6144,1.5687,0.7721,1.6139,-1.9129,-1.6135,
17.203191,0.6041,-0.9592,-0.2637,3.6144,1.5687,0.7721,1.6139,-1.9129,-1.6135,
17.221262,0.6041,-0.9592,-0.2637,3.6144,1.5687,0.7721,1.3407,-2.2561,-1.9100,
17.231457,0.6041,-0.9592,-0.2637,1.4371,-0.3138,-1.4548,1.3407,-2.2561,-1.9100,
17.270576,0.5082,-0.8646,-0.0751,1.4371,-0.3138,-1.4548,1.3407,-2.2561,-1.9100,
17.288756,0.5082,-0.8646,-0.0751,1.4371,-0.3138,-1.4548,0.7055,-1.3438,-1.6346,
17.299423,0.5082,-0.8646,-0.0751,-1.1559,-1.6334,-1.2038,0.7055,-1.3438,-1.6346,
17.339277,0.4045,-0.7391,0.1404,-1.1559,-1.6334,-1.2038,0.7055,-1.3438,-1.6346,
17.358529,0.4045,-0.7391,0.1404,-1.1559,-1.6334,-1.2038,1.1295,-1.4598,-1.4794,
17.367407,0.4045,-0.7391,0.1404,-2.1357,-0.9508,1.4055,1.1295,-1.4598,-1.4794,
17.406026,0.2458,-0.5953,0.1311,-2.1357,-0.9508,1.4055,1.1295,-1.4598,-1.4794,
17.426825,0.2458,-0.5953,0.1311,-2.1357,-0.9508,1.4055,1.5141,-1.4837,-0.8701,
17.435431,0.2458,-0.5953,0.1311,-4.0637,0.2872,2.6007,1.5141,-1.4837,-0.8701,
17.474732,0.3008,-0.9580,-0.0122,-4.0637,0.2872,2.6007,1.5141,-1.4837,-0.8701,
17.495932,0.3008,-0.9580,-0.0122,-4.0637,0.2872,2.6007,0.9627,-1.2557,-0.2301,
17.507795,0.3008,-0.9580,-0.0122,-4.7114,0.2704,1.7952,0.9627,-1.2557,-0.2301,
17.543200,0.4107,-1.3315,-0.0042,-4.7114,0.2704,1.7952,0.9627,-1.2557,-0.2301,
17.562123,0.4107,-1.3315,-0.0042,-4.7114,0.2704,1.7952,-0.4219,-0.5425,1.2438,
17.571739,0.4107,-1.3315,-0.0042,-3.0847,-4.4299,1.1553,-0.4219,-0.5425,1.2438,
17.610658,0.8234,-1.0338,0.3600,-3.0847,-4.4299,1.1553,-0.4219,-0.5425,1.2438,
17.629690,0.8234,-1.0338,0.3600,-3.0847,-4.4299,1.1553,-1.0440,-0.0114,0.8724,
17.639868,0.8234,-1.0338,0.3600,-0.0640,-4.4868,3.3262,-1.0440,-0.0114,0.8724,
17.679387,0.6926,-0.7857,0.4657,-0.0640,-4.4868,3.3262,-1.0440,-0.0114,0.8724,
17.698062,0.6926,-0.7857,0.4657,-0.0640,-4.4868,3.3262,0.4497,0.2595,-0.8213,
17.708429,0.6926,-0.7857,0.4657,1.5422,-1.3015,6.0570,0.4497,0.2595,-0.8213,
17.747189,0.4335,-0.8040,0.1729,1.5422,-1.3015,6.0570,0.4497,0.2595,-0.8213,
17.766279,0.4335,-0.8040,0.1729,1.5422,-1.3015,6.0570,2.0107,-0.4417,-0.5900,
17.777318,0.4335,-0.8040,0.1729,-1.0067,-0.3808,4.2418,2.0107,-0.4417,-0.5900,
17.815296,0.4342,-0.8550,-0.0862,-1.0067,-0.3808,4.2418,2.0107,-0.4417,-0.5900,
17.834523,0.4342,-0.8550,-0.0862,-1.0067,-0.3808,4.2418,1.7906,-1.3724,0.5411,
17.844450,0.4342,-0.8550,-0.0862,-2.4288,-0.3992,0.6328,1.7906,-1.3724,0.5411,
17.884126,0.6405,-0.8485,-0.1596,-2.4288,-0.3992,0.6328,1.7906,-1.3724,0.5411,
17.902909,0.6405,-0.8485,-0.1596,-2.4288,-0.3992,0.6328,1.2282,-0.9428,0.9578,
17.912759,0.6405,-0.8485,-0.1596,-0.5748,-0.4507,-1.0828,1.2282,-0.9428,0.9578,
17.951950,0.7437,-0.8801,-0.2740,-0.5748,-0.4507,-1.0828,1.2282,-0.9428,0.9578,
17.971004,0.7437,-0.8801,-0.2740,-0.5748,-0.4507,-1.0828,0.1380,-0.4365,0.5040,
17.981394,0.7437,-0.8801,-0.2740,1.3192,0.1260,-1.8414,0.1380,-0.4365,0.5040,
18.020268,0.7069,-0.9351,-0.0379,1.3192,0.1260,-1.8414,0.1380,-0.4365,0.5040,
18.040095,0.7069,-0.9351,-0.0379,1.3192,0.1260,-1.8414,0.1090,-0.2879,0.2408,
18.049117,0.7069,-0.9351,-0.0379,1.8873,-0.8030,-1.4662,0.1090,-0.2879,0.2408,
18.088307,0.6842,-0.8122,-0.0978,1.8873,-0.8030,-1.4662,0.1090,-0.2879,0.2408,
18.107494,0.6842,-0.8122,-0.0978,1.8873,-0.8030,-1.4662,0.6011,-0.4194,0.2465,
18.117613,0.6842,-0.8122,-0.0978,1.4376,-0.2727,-0.4315,0.6011,-0.4194,0.2465,
18.157958,0.7353,-0.7755,-0.0278,1.4376,-0.2727,-0.4315,0.6011,-0.4194,0.2465,
18.176482,0.7353,-0.7755,-0.0278,1.4376,-0.2727,-0.4315,1.0676,-0.6191,-0.1410,
18.185733,0.7353,-0.7755,-0.0278,1.4691,0.7736,-0.8820,1.0676,-0.6191,-0.1410,
18.224691,0.7393,-0.8357,-0.1103,1.4691,0.7736,-0.8820,1.0676,-0.6191,-0.1410,
18.244396,0.7393,-0.8357,-0.1103,1.4691,0.7736,-0.8820,0.8191,-1.0652,-0.7064,
18.254528,0.7393,-0.8357,-0.1103,1.4306,0.0757,-0.8310,0.8191,-1.0652,-0.7064,
18.292969,0.6947,-0.8367,0.0371,1.4306,0.0757,-0.8310,0.8191,-1.0652,-0.7064,
18.311871,0.6947,-0.8367,0.0371,1.4306,0.0757,-0.8310,0.3271,-0.7264,-1.3271,
18.322693,0.6947,-0.8367,0.0371,0.4659,-0.7441,-0.8298,0.3271,-0.7264,-1.3271,
18.361816,0.5339,-0.8064,0.1192,0.4659,-0.7441,-0.8298,0.3271,-0.7264,-1.3271,
18.380384,0.5339,-0.8064,0.1192,0.4659,-0.7441,-0.8298,0.7117,-0.5267,-1.4235,
18.390483,0.5339,-0.8064,0.1192,-1.1084,-1.3500,0.7063,0.7117,-0.5267,-1.4235,
18.429828,0.4918,-0.6889,0.0437,-1.1084,-1.3500,0.7063,0.7117,-0.5267,-1.4235,
18.448723,0.4918,-0.6889,0.0437,-1.1084,-1.3500,0.7063,0.9118,-0.1765,-0.9365,
18.458311,0.4918,-0.6889,0.0437,-2.9359,-1.1580,0.3306,0.9118,-0.1765,-0.9365,
18.507952,0.5862,-0.5794,-0.0264,-2.9359,-1.1580,0.3306,0.9118,-0.1765,-0.9365,
18.517234,0.5862,-0.5794,-0.0264,-2.9359,-1.1580,0.3306,0.4297,0.9282,-0.8020,
18.526511,0.5862,-0.5794,-0.0264,-2.6311,-0.3827,-1.2776,0.4297,0.9282,-0.8020,
18.567923,0.5820,-0.4749,0.0448,-2.6311,-0.3827,-1.2776,0.4297,0.9282,-0.8020,
18.586848,0.5820,-0.4749,0.0448,-2.6311,-0.3827,-1.2776,0.1675,0.9074,-0.6916,
18.595893,0.5820,-0.4749,0.0448,-2.1981,0.3786,-1.9871,0.1675,0.9074,-0.6916,
18.634776,0.6895,-0.5739,0.0646,-2.1981,0.3786,-1.9871,0.1675,0.9074,-0.6916,
18.655478,0.6895,-0.5739,0.0646,-2.1981,0.3786,-1.9871,0.3392,0.0325,-0.2843,
18.664692,0.6895,-0.5739,0.0646,-2.2428,0.5915,-0.9650,0.3392,0.0325,-0.2843,
18.704292,0.8805,-0.8816,0.0587,-2.2428,0.5915,-0.9650,0.3392,0.0325,-0.2843,
18.722616,0.8805,-0.8816,0.0587,-2.2428,0.5915,-0.9650,-0.6458,0.3053,0.2756,
18.731992,0.8805,-0.8816,0.0587,-0.0830,-1.2984,-1.4687,-0.6458,0.3053,0.2756,
18.772827,0.9101,-0.9344,0.3598,-0.0830,-1.2984,-1.4687,-0.6458,0.3053,0.2756,
18.791564,0.9101,-0.9344,0.3598,-0.0830,-1.2984,-1.4687,-0.5798,0.0743,0.6085,
18.802156,0.9101,-0.9344,0.3598,1.2224,-3.2322,-0.0061,-0.5798,0.0743,0.6085,
18.841011,0.8049,-0.8263,0.3563,1.2224,-3.2322,-0.0061,-0.5798,0.0743,0.6085,
18.860495,0.8049,-0.8263,0.3563,1.2224,-3.2322,-0.0061,1.9706,-1.6363,0.2861,
18.869822,0.8049,-0.8263,0.3563,0.8636,-2.4970,2.9955,1.9706,-1.6363,0.2861,
18.908924,0.6408,-0.7044,-0.0942,0.8636,-2.4970,2.9955,1.9706,-1.6363,0.2861,
18.927440,0.6408,-0.7044,-0.0942,0.8636,-2.4970,2.9955,1.7402,-1.6442,0.5217,
18.940749,0.6408,-0.7044,-0.0942,-0.6646,-1.6416,-0.0447,1.7402,-1.6442,0.5217,
18.977478,0.7088,-0.5745,-0.1265,-0.6646,-1.6416,-0.0447,1.7402,-1.6442,0.5217,
18.997653,0.7088,-0.5745,-0.1265,-0.6646,-1.6416,-0.0447,-0.1658,-0.1032,0.4961,
19.009240,0.7088,-0.5745,-0.1265,-0.9717,0.2976,-2.8803,-0.1658,-0.1032,0.4961,
19.045743,0.6602,-0.6146,0.1130,-0.9717,0.2976,-2.8803,-0.1658,-0.1032,0.4961,
19.063680,0.6602,-0.6146,0.1130,-0.9717,0.2976,-2.8803,-0.8129,0.1552,0.1377,
19.076187,0.6602,-0.6146,0.1130,-0.5002,0.9147,-1.0807,-0.8129,0.1552,0.1377,
19.114073,0.6140,-0.6865,0.1899,-0.5002,0.9147,-1.0807,-0.8129,0.1552,0.1377,
19.133022,0.6140,-0.6865,0.1899,-0.5002,0.9147,-1.0807,-0.6175,-0.0832,0.1387,
19.142306,0.6140,-0.6865,0.1899,-1.1028,0.2721,0.9686,-0.6175,-0.0832,0.1387,
19.181870,0.6002,-0.7456,0.1849,-1.1028,0.2721,0.9686,-0.6175,-0.0832,0.1387,
19.200903,0.6002,-0.7456,0.1849,-1.1028,0.2721,0.9686,-0.1732,-0.3585,0.1345,
19.211344,0.6002,-0.7456,0.1849,-1.3071,-0.1376,1.6112,-0.1732,-0.3585,0.1345,
19.250707,0.6046,-0.9388,0.1148,-1.3071,-0.1376,1.6112,-0.1732,-0.3585,0.1345,
19.269693,0.6046,-0.9388,0.1148,-1.3071,-0.1376,1.6112,0.0257,-0.2687,0.4007,
19.278110,0.6046,-0.9388,0.1148,-1.1355,-1.0602,1.1972,0.0257,-0.2687,0.4007,
19.319551,0.6140,-1.0495,0.0771,-1.1355,-1.0602,1.1972,0.0257,-0.2687,0.4007,
19.337942,0.6140,-1.0495,0.0771,-1.1355,-1.0602,1.1972,-0.1734,0.0918,1.1537,
19.346872,0.6140,-1.0495,0.0771,-0.2974,-2.4431,0.4766,-0.1734,0.0918,1.1537,
19.387184,0.6935,-0.9110,0.1088,-0.2974,-2.4431,0.4766,-0.1734,0.0918,1.1537,
19.405966,0.6935,-0.9110,0.1088,-0.2974,-2.4431,0.4766,0.3889,0.1441,1.5673,
19.414613,0.6935,-0.9110,0.1088,0.6276,-1.4343,0.4968,0.3889,0.1441,1.5673,
19.455427,0.7279,-0.6919,-0.0012,0.6276,-1.4343,0.4968,0.3889,0.1441,1.5673,
19.473051,0.7279,-0.6919,-0.0012,0.6276,-1.4343,0.4968,0.5501,0.1855,1.3155,
19.484943,0.7279,-0.6919,-0.0012,2.0836,0.4619,-0.3634,0.5501,0.1855,1.3155,
19.523513,0.8669,-0.7089,-0.0883,2.0836,0.4619,-0.3634,0.5501,0.1855,1.3155,
19.542251,0.8669,-0.7089,-0.0883,2.0836,0.4619,-0.3634,-0.2567,0.6376,-0.0851,
19.551054,0.8669,-0.7089,-0.0883,2.7899,2.0799,-1.2787,-0.2567,0.6376,-0.0851,
19.591701,0.6832,-0.8031,-0.1047,2.7899,2.0799,-1.2787,-0.2567,0.6376,-0.0851,
19.609882,0.6832,-0.8031,-0.1047,2.7899,2.0799,-1.2787,-1.8928,1.9621,-1.2599,
19.620647,0.6832,-0.8031,-0.1047,2.2945,0.7286,-1.8220,-1.8928,1.9621,-1.2599,
19.659520,0.4804,-0.7919,0.0865,2.2945,0.7286,-1.8220,-1.8928,1.9621,-1.2599,
19.679490,0.4804,-0.7919,0.0865,2.2945,0.7286,-1.8220,-1.8942,2.5253,-1.3551,
19.687853,0.4804,-0.7919,0.0865,-0.6078,-0.3535,-0.6821,-1.8942,2.5253,-1.3551,
19.727698,0.4141,-0.7193,0.0976,-0.6078,-0.3535,-0.6821,-1.8942,2.5253,-1.3551,
19.746505,0.4141,-0.7193,0.0976,-0.6078,-0.3535,-0.6821,-1.1243,1.6360,-0.9041,
19.756436,0.4141,-0.7193,0.0976,-2.4013,-0.0565,0.2604,-1.1243,1.6360,-0.9041,
19.796040,0.4183,-0.6744,0.0662,-2.4013,-0.0565,0.2604,-1.1243,1.6360,-0.9041,
19.815199,0.4183,-0.6744,0.0662,-2.4013,-0.0565,0.2604,-0.4918,0.7506,-0.3010,
19.825306,0.4183,-0.6744,0.0662,-2.6226,0.3762,0.0562,-0.4918,0.7506,-0.3010,
19.864550,0.4726,-0.7242,0.0283,-2.6226,0.3762,0.0562,-0.4918,0.7506,-0.3010,
19.883904,0.4726,-0.7242,0.0283,-2.6226,0.3762,0.0562,-0.2647,0.6512,0.3409,
19.893155,0.4726,-0.7242,0.0283,-2.1416,0.8321,-0.5012,-0.2647,0.6512,0.3409,
19.932335,0.5723,-0.8304,0.0806,-2.1416,0.8321,-0.5012,-0.2647,0.6512,0.3409,
19.951835,0.5723,-0.8304,0.0806,-2.1416,0.8321,-0.5012,0.0315,0.3282,0.9671,
19.961456,0.5723,-0.8304,0.0806,-0.8570,0.3101,-0.6651,0.0315,0.3282,0.9671,
20.010014,0.7946,-1.0782,0.0839,-0.8570,0.3101,-0.6651,0.0315,0.3282,0.9671,
20.019655,0.7946,-1.0782,0.0839,-0.8570,0.3101,-0.6651,0.2276,-0.3053,1.0941,
20.029045,0.7946,-1.0782,0.0839,1.1745,-0.5488,-0.2029,0.2276,-0.3053,1.0941,
20.068643,0.8245,-0.9711,0.0903,1.1745,-0.5488,-0.2029,0.2276,-0.3053,1.0941,
20.087445,0.8245,-0.9711,0.0903,1.1745,-0.5488,-0.2029,0.1851,0.0341,1.1301,
20.099244,0.8245,-0.9711,0.0903,3.5569,-2.4189,-0.4867,0.1851,0.0341,1.1301,
20.136357,0.8741,-0.7496,0.1219,3.5569,-2.4189,-0.4867,0.1851,0.0341,1.1301,
20.155703,0.8741,-0.7496,0.1219,3.5569,-2.4189,-0.4867,0.8880,-0.0349,0.1568,
20.167782,0.8741,-0.7496,0.1219,3.3050,0.5811,-0.5453,0.8880,-0.0349,0.1568,
20.205713,0.7811,-0.9588,-0.1653,3.3050,0.5811,-0.5453,0.8880,-0.0349,0.1568,
20.223682,0.7811,-0.9588,-0.1653,3.3050,0.5811,-0.5453,-0.3053,-0.3914,-1.1692,
20.235477,0.7811,-0.9588,-0.1653,3.0517,-0.1173,-1.1360,-0.3053,-0.3914,-1.1692,
20.274166,0.6359,-0.9264,0.1469,3.0517,-0.1173,-1.1360,-0.3053,-0.3914,-1.1692,
20.292160,0.6359,-0.9264,0.1469,3.0517,-0.1173,-1.1360,-2.0923,0.3566,-1.3043,
20.302726,0.6359,-0.9264,0.1469,0.4477,-1.7016,-1.5816,-2.0923,0.3566,-1.3043,
20.342026,0.4950,-0.7998,0.3346,0.4477,-1.7016,-1.5816,-2.0923,0.3566,-1.3043,
20.360800,0.4950,-0.7998,0.3346,0.4477,-1.7016,-1.5816,-0.2107,0.4411,-1.4487,
20.369542,0.4950,-0.7998,0.3346,-1.1372,-1.4611,2.6908,-0.2107,0.4411,-1.4487,
20.410124,0.4083,-0.7410,-0.0160,-1.1372,-1.4611,2.6908,-0.2107,0.4411,-1.4487,
20.429184,0.4083,-0.7410,-0.0160,-1.1372,-1.4611,2.6908,-0.1758,0.6393,-0.9957,
20.437951,0.4083,-0.7410,-0.0160,-3.0781,-0.7936,1.0735,-0.1758,0.6393,-0.9957,
20.478820,0.3861,-0.7506,0.0250,-3.0781,-0.7936,1.0735,-0.1758,0.6393,-0.9957,
20.508367,0.3861,-0.7506,0.0250,-3.0781,-0.7936,1.0735,-1.3468,0.7769,-0.5905,
20.509703,0.3861,-0.7506,0.0250,-3.5776,-0.6534,-1.0292,-1.3468,0.7769,-0.5905,
20.552040,0.3557,-0.8069,0.2050,-3.5776,-0.6534,-1.0292,-1.3468,0.7769,-0.5905,
20.565373,0.3557,-0.8069,0.2050,-3.5776,-0.6534,-1.0292,-1.2570,0.5963,0.0491,
20.574264,0.3557,-0.8069,0.2050,-3.6681,-0.9688,0.9116,-1.2570,0.5963,0.0491,
20.614864,0.4036,-0.8543,0.2200,-3.6681,-0.9688,0.9116,-1.2570,0.5963,0.0491,
20.633487,0.4036,-0.8543,0.2200,-3.6681,-0.9688,0.9116,-0.4825,0.3744,0.9986,
20.643477,0.4036,-0.8543,0.2200,-3.2120,-0.9299,2.0603,-0.4825,0.3744,0.9986,
20.683479,0.5668,-1.0153,0.0600,-3.2120,-0.9299,2.0603,-0.4825,0.3744,0.9986,
20.702038,0.5668,-1.0153,0.0600,-3.2120,-0.9299,2.0603,-0.3994,0.2590,1.6887,
20.711870,0.5668,-1.0153,0.0600,-1.1895,-0.8697,1.3506,-0.3994,0.2590,1.6887,
20.751757,0.7452,-1.0202,0.1490,-1.1895,-0.8697,1.3506,-0.3994,0.2590,1.6887,
20.770157,0.7452,-1.0202,0.1490,-1.1895,-0.8697,1.3506,-0.3422,0.1061,2.0643,
20.780189,0.7452,-1.0202,0.1490,1.4901,-1.5431,0.6068,-0.3422,0.1061,2.0643,
20.819346,0.8559,-0.8482,0.1185,1.4901,-1.5431,0.6068,-0.3422,0.1061,2.0643,
20.838904,0.8559,-0.8482,0.1185,1.4901,-1.5431,0.6068,0.2597,0.2266,1.3914,
20.848284,0.8559,-0.8482,0.1185,4.1326,-0.4013,1.2296,0.2597,0.2266,1.3914,
20.887653,0.8307,-0.7200,0.0082,4.1326,-0.4013,1.2296,0.2597,0.2266,1.3914,
20.906853,0.8307,-0.7200,0.0082,4.1326,-0.4013,1.2296,0.2084,0.8521,0.1479,
20.917043,0.8307,-0.7200,0.0082,4.2095,1.7467,0.0167,0.2084,0.8521,0.1479,
20.955586,0.6756,-0.8261,-0.0499,4.2095,1.7467,0.0167,0.2084,0.8521,0.1479,
20.974248,0.6756,-0.8261,-0.0499,4.2095,1.7467,0.0167,-0.4226,1.1471,-0.9404,
20.984745,0.6756,-0.8261,-0.0499,3.1094,1.2330,-0.9964,-0.4226,1.1471,-0.9404,
21.024677,0.4886,-0.7945,0.0383,3.1094,1.2330,-0.9964,-0.4226,1.1471,-0.9404,
21.043019,0.4886,-0.7945,0.0383,3.1094,1.2330,-0.9964,-0.3596,1.2916,-0.9451,
21.054092,0.4886,-0.7945,0.0383,0.5656,0.3304,-1.1633,-0.3596,1.2916,-0.9451,
21.091962,0.3877,-0.7584,-0.0015,0.5656,0.3304,-1.1633,-0.3596,1.2916,-0.9451,
21.111580,0.3877,-0.7584,-0.0015,0.5656,0.3304,-1.1633,0.3396,0.6041,-0.5002,
21.124159,0.3877,-0.7584,-0.0015,-0.9955,0.7458,-0.9178,0.3396,0.6041,-0.5002,
21.161209,0.4084,-0.7803,-0.0822,-0.9955,0.7458,-0.9178,0.3396,0.6041,-0.5002,
21.179319,0.4084,-0.7803,-0.0822,-0.9955,0.7458,-0.9178,0.6418,-0.2712,0.1461,
21.189519,0.4084,-0.7803,-0.0822,-1.5143,0.7973,-1.9522,0.6418,-0.2712,0.1461,
21.229240,0.5239,-0.8013,-0.1378,-1.5143,0.7973,-1.9522,0.6418,-0.2712,0.1461,
21.247958,0.5239,-0.8013,-0.1378,-1.5143,0.7973,-1.9522,0.3205,-0.6884,0.3467,
21.258484,0.5239,-0.8013,-0.1378,-0.5816,0.6626,-2.6316,0.3205,-0.6884,0.3467,
21.297293,0.5939,-0.8263,-0.0231,-0.5816,0.6626,-2.6316,0.3205,-0.6884,0.3467,
21.316159,0.5939,-0.8263,-0.0231,-0.5816,0.6626,-2.6316,0.1549,-0.5045,0.1674,
21.325031,0.5939,-0.8263,-0.0231,0.5209,0.3422,-2.1555,0.1549,-0.5045,0.1674,
21.366103,0.5623,-0.8182,0.0504,0.5209,0.3422,-2.1555,0.1549,-0.5045,0.1674,
21.383900,0.5623,-0.8182,0.0504,0.5209,0.3422,-2.1555,0.0928,-0.1558,-0.0076,
21.393342,0.5623,-0.8182,0.0504,0.6292,0.3954,-1.2399,0.0928,-0.1558,-0.0076,
21.433513,0.6364,-1.0847,0.0526,0.6292,0.3954,-1.2399,0.0928,-0.1558,-0.0076,
21.452863,0.6364,-1.0847,0.0526,0.6292,0.3954,-1.2399,-0.2610,-0.1991,-0.0715,
21.462447,0.6364,-1.0847,0.0526,0.7047,-0.5509,-0.3862,-0.2610,-0.1991,-0.0715,
21.509169,0.6446,-0.9650,0.2632,0.7047,-0.5509,-0.3862,-0.2610,-0.1991,-0.0715,
21.521129,0.6446,-0.9650,0.2632,0.7047,-0.5509,-0.3862,-0.1000,-0.3342,0.1400,
21.530772,0.6446,-0.9650,0.2632,1.0942,-2.3263,0.1524,-0.1000,-0.3342,0.1400,
21.570095,0.6374,-0.8314,0.1778,1.0942,-2.3263,0.1524,-0.1000,-0.3342,0.1400,
21.589044,0.6374,-0.8314,0.1778,1.0942,-2.3263,0.1524,1.3024,-0.8485,-0.6214,
21.598176,0.6374,-0.8314,0.1778,0.8218,-0.3009,1.7713,1.3024,-0.8485,-0.6214,
21.639622,0.5705,-0.9868,-0.1418,0.8218,-0.3009,1.7713,1.3024,-0.8485,-0.6214,
21.657159,0.5705,-0.9868,-0.1418,0.8218,-0.3009,1.7713,-0.5538,0.0431,-1.0410,
21.666319,0.5705,-0.9868,-0.1418,-0.2528,-1.0117,-1.1571,-0.5538,0.0431,-1.0410,
21.707050,0.5607,-1.0029,0.2284,-0.2528,-1.0117,-1.1571,-0.5538,0.0431,-1.0410,
21.726697,0.5607,-1.0029,0.2284,-0.2528,-1.0117,-1.1571,-1.8958,0.6719,-1.3039,
21.735358,0.5607,-1.0029,0.2284,-1.2559,-2.6367,-0.6431,-1.8958,0.6719,-1.3039,
21.774803,0.4104,-0.9321,0.3811,-1.2559,-2.6367,-0.6431,-1.8958,0.6719,-1.3039,
21.793717,0.4104,-0.9321,0.3811,-1.2559,-2.6367,-0.6431,-0.7022,0.6399,-1.3912,
21.804406,0.4104,-0.9321,0.3811,-2.3551,-2.8806,3.0942,-0.7022,0.6399,-1.3912,
21.843179,0.3266,-0.8505,0.1898,-2.3551,-2.8806,3.0942,-0.7022,0.6399,-1.3912,
21.861992,0.3266,-0.8505,0.1898,-2.3551,-2.8806,3.0942,-0.0182,0.5479,-0.6054,
21.871975,0.3266,-0.8505,0.1898,-4.1294,-2.2844,2.4103,-0.0182,0.5479,-0.6054,
21.911585,0.3649,-0.8457,0.0689,-4.1294,-2.2844,2.4103,-0.0182,0.5479,-0.6054,
21.930011,0.3649,-0.8457,0.0689,-4.1294,-2.2844,2.4103,-0.6902,0.7319,0.0331,
21.940212,0.3649,-0.8457,0.0689,-3.9460,-1.5984,0.2899,-0.6902,0.7319,0.0331,
21.979524,0.4022,-0.8879,0.1887,-3.9460,-1.5984,0.2899,-0.6902,0.7319,0.0331,
22.006966,0.4022,-0.8879,0.1887,-3.9460,-1.5984,0.2899,-1.0496,0.6978,0.7019,
22.008327,0.4022,-0.8879,0.1887,-3.2751,-1.3937,0.3793,-1.0496,0.6978,0.7019,
22.047252,0.4776,-0.8903,0.2193,-3.2751,-1.3937,0.3793,-1.0496,0.6978,0.7019,
22.066715,0.4776,-0.8903,0.2193,-3.2751,-1.3937,0.3793,-0.6522,0.5464,1.1573,
22.076177,0.4776,-0.8903,0.2193,-1.9125,-1.1025,1.7302,-0.6522,0.5464,1.1573,
22.115689,0.5235,-0.9003,0.1184,-1.9125,-1.1025,1.7302,-0.6522,0.5464,1.1573,
22.134836,0.5235,-0.9003,0.1184,-1.9125,-1.1025,1.7302,-0.8370,0.6917,1.5449,
22.147038,0.5235,-0.9003,0.1184,-0.5208,-0.4396,1.2638,-0.8370,0.6917,1.5449,
22.184661,0.6518,-0.9275,0.1305,-0.5208,-0.4396,1.2638,-0.8370,0.6917,1.5449,
22.203714,0.6518,-0.9275,0.1305,-0.5208,-0.4396,1.2638,-1.3637,0.8483,1.5773,
22.213695,0.6518,-0.9275,0.1305,1.1459,-0.0558,1.2423,-1.3637,0.8483,1.5773,
22.252492,0.7584,-0.9540,0.1869,1.1459,-0.0558,1.2423,-1.3637,0.8483,1.5773,
22.271598,0.7584,-0.9540,0.1869,1.1459,-0.0558,1.2423,-1.7608,1.2390,1.0449,
22.282116,0.7584,-0.9540,0.1869,2.8312,-0.0112,2.3749,-1.7608,1.2390,1.0449,
22.320677,0.6984,-0.9877,0.2537,2.8312,-0.0112,2.3749,-1.7608,1.2390,1.0449,
22.339634,0.6984,-0.9877,0.2537,2.8312,-0.0112,2.3749,-2.0831,2.0201,0.4714,
22.350297,0.6984,-0.9877,0.2537,3.7177,-0.8261,3.3327,-2.0831,2.0201,0.4714,
22.388989,0.6148,-0.8332,0.4020,3.7177,-0.8261,3.3327,-2.0831,2.0201,0.4714,
22.407033,0.6148,-0.8332,0.4020,3.7177,-0.8261,3.3327,-0.1398,1.6743,0.3584,
22.418717,0.6148,-0.8332,0.4020,2.2887,0.0730,4.4241,-0.1398,1.6743,0.3584,
22.457022,0.5174,-0.7315,-0.0588,2.2887,0.0730,4.4241,-0.1398,1.6743,0.3584,
22.476008,0.5174,-0.7315,-0.0588,2.2887,0.0730,4.4241,0.9836,1.0265,0.1222,
22.484841,0.5174,-0.7315,-0.0588,1.8909,1.5259,2.3736,0.9836,1.0265,0.1222,
22.526125,0.4703,-0.8026,-0.2481,1.8909,1.5259,2.3736,0.9836,1.0265,0.1222,
22.543925,0.4703,-0.8026,-0.2481,1.8909,1.5259,2.3736,-0.1671,1.2001,-0.1467,
22.553788,0.4703,-0.8026,-0.2481,0.6688,1.8793,-2.1327,-0.1671,1.2001,-0.1467,
22.593580,0.4294,-0.9612,-0.1410,0.6688,1.8793,-2.1327,-0.1671,1.2001,-0.1467,
22.611232,0.4294,-0.9612,-0.1410,0.6688,1.8793,-2.1327,-0.6509,0.9052,-0.3977,
22.620933,0.4294,-0.9612,-0.1410,0.1749,0.3056,-2.0050,-0.6509,0.9052,-0.3977,
22.660463,0.3315,-0.9921,-0.1281,0.1749,0.3056,-2.0050,-0.6509,0.9052,-0.3977,
22.679311,0.3315,-0.9921,-0.1281,0.1749,0.3056,-2.0050,-0.3380,0.7919,-0.3388,
22.689302,0.3315,-0.9921,-0.1281,-0.4867,-0.8164,-1.1291,-0.3380,0.7919,-0.3388,
22.727834,0.2934,-0.9876,-0.1844,-0.4867,-0.8164,-1.1291,-0.3380,0.7919,-0.3388,
22.747961,0.2934,-0.9876,-0.1844,-0.4867,-0.8164,-1.1291,-0.0244,0.5207,0.2556,
22.758799,0.2934,-0.9876,-0.1844,-1.4364,-0.7000,-1.4921,-0.0244,0.5207,0.2556,
22.797453,0.4261,-0.9367,-0.2221,-1.4364,-0.7000,-1.4921,-0.0244,0.5207,0.2556,
22.817219,0.4261,-0.9367,-0.2221,-1.4364,-0.7000,-1.4921,-0.2299,0.1630,0.4263,
22.825504,0.4261,-0.9367,-0.2221,-0.6417,-0.4786,-2.0182,-0.2299,0.1630,0.4263,
22.865307,0.4507,-0.9185,-0.1778,-0.6417,-0.4786,-2.0182,-0.2299,0.1630,0.4263,
22.884211,0.4507,-0.9185,-0.1778,-0.6417,-0.4786,-2.0182,-0.8892,0.6664,0.0315,
22.893949,0.4507,-0.9185,-0.1778,0.5568,0.1300,-1.6326,-0.8892,0.6664,0.0315,
22.932875,0.3822,-0.8894,0.0013,0.5568,0.1300,-1.6326,-0.8892,0.6664,0.0315,
22.952154,0.3822,-0.8894,0.0013,0.5568,0.1300,-1.6326,-0.8376,0.7129,0.0042,
22.962885,0.3822,-0.8894,0.0013,0.0608,-0.0177,-0.1590,-0.8376,0.7129,0.0042,
23.007131,0.4104,-0.8004,-0.0184,0.0608,-0.0177,-0.1590,-0.8376,0.7129,0.0042,
23.020672,0.4104,-0.8004,-0.0184,0.0608,-0.0177,-0.1590,-0.1628,0.3139,0.0496,
23.030872,0.4104,-0.8004,-0.0184,-0.3369,0.7323,1.0843,-0.1628,0.3139,0.0496,
23.070017,0.4413,-0.7862,-0.1304,-0.3369,0.7323,1.0843,-0.1628,0.3139,0.0496,
23.088417,0.4413,-0.7862,-0.1304,-0.3369,0.7323,1.0843,-0.4242,0.6962,-0.1853,
23.100076,0.4413,-0.7862,-0.1304,0.1551,1.3147,-0.1494,-0.4242,0.6962,-0.1853,
23.138294,0.4367,-0.8146,-0.0297,0.1551,1.3147,-0.1494,-0.4242,0.6962,-0.1853,
23.158025,0.4367,-0.8146,-0.0297,0.1551,1.3147,-0.1494,0.0240,0.5456,-0.1200,
23.167262,0.4367,-0.8146,-0.0297,-0.0682,0.9534,-0.0666,0.0240,0.5456,-0.1200,
23.206167,0.4828,-0.7852,-0.1580,-0.0682,0.9534,-0.0666,0.0240,0.5456,-0.1200,
23.225126,0.4828,-0.7852,-0.1580,-0.0682,0.9534,-0.0666,0.3680,0.3386,-0.1296,
23.235303,0.4828,-0.7852,-0.1580,0.0850,0.9959,-0.4135,0.3680,0.3386,-0.1296,
23.275159,0.5362,-0.7966,-0.2131,0.0850,0.9959,-0.4135,0.3680,0.3386,-0.1296,
23.293880,0.5362,-0.7966,-0.2131,0.0850,0.9959,-0.4135,0.1458,0.4025,-0.3792,
23.303890,0.5362,-0.7966,-0.2131,0.3011,1.0410,-1.7753,0.1458,0.4025,-0.3792,
23.343510,0.6004,-1.0025,-0.1362,0.3011,1.0410,-1.7753,0.1458,0.4025,-0.3792,
23.362945,0.6004,-1.0025,-0.1362,0.3011,1.0410,-1.7753,-0.3431,0.4596,-0.6007,
23.371515,0.6004,-1.0025,-0.1362,0.7307,-0.1503,-1.6377,-0.3431,0.4596,-0.6007,
23.412016,0.6430,-0.7626,0.0206,0.7307,-0.1503,-1.6377,-0.3431,0.4596,-0.6007,
23.430823,0.6430,-0.7626,0.0206,0.7307,-0.1503,-1.6377,-0.2813,0.5950,-0.8074,
23.439956,0.6430,-0.7626,0.0206,0.1011,-0.8119,-0.3545,-0.2813,0.5950,-0.8074,
23.478960,0.6237,-0.9619,-0.0849,0.1011,-0.8119,-0.3545,-0.2813,0.5950,-0.8074,
23.508165,0.6237,-0.9619,-0.0849,0.1011,-0.8119,-0.3545,-0.8732,1.0327,-1.5858,
23.509480,0.6237,-0.9619,-0.0849,0.3050,-0.3584,0.1513,-0.8732,1.0327,-1.5858,
23.546714,0.5279,-1.0528,0.1268,0.3050,-0.3584,0.1513,-0.8732,1.0327,-1.5858,
23.565853,0.5279,-1.0528,0.1268,0.3050,-0.3584,0.1513,-1.4249,1.3890,-1.1350,
23.577102,0.5279,-1.0528,0.1268,-1.5248,-3.2427,-0.1027,-1.4249,1.3890,-1.1350,
23.614694,0.5362,-0.9433,0.2047,-1.5248,-3.2427,-0.1027,-1.4249,1.3890,-1.1350,
23.634033,0.5362,-0.9433,0.2047,-1.5248,-3.2427,-0.1027,-0.2178,0.7379,-0.7626,
23.644344,0.5362,-0.9433,0.2047,-1.9412,-3.1544,2.2414,-0.2178,0.7379,-0.7626,
23.683966,0.4695,-0.7703,-0.0080,-1.9412,-3.1544,2.2414,-0.2178,0.7379,-0.7626,
23.702159,0.4695,-0.7703,-0.0080,-1.9412,-3.1544,2.2414,-0.1067,0.9312,-0.2895,
23.712473,0.4695,-0.7703,-0.0080,-2.4064,-1.8570,0.6217,-0.1067,0.9312,-0.2895,
23.751250,0.4277,-0.7261,-0.0388,-2.4064,-1.8570,0.6217,-0.1067,0.9312,-0.2895,
23.770596,0.4277,-0.7261,-0.0388,-2.4064,-1.8570,0.6217,-0.9159,1.2544,0.0830,
23.780682,0.4277,-0.7261,-0.0388,-2.6703,-0.3267,-1.0197,-0.9159,1.2544,0.0830,
23.819483,0.4762,-0.8184,0.0761,-2.6703,-0.3267,-1.0197,-0.9159,1.2544,0.0830,
23.838637,0.4762,-0.8184,0.0761,-2.6703,-0.3267,-1.0197,-1.5296,1.3074,0.6636,
23.848514,0.4762,-0.8184,0.0761,-2.5638,-0.2526,-0.3676,-1.5296,1.3074,0.6636,
23.887863,0.5835,-0.9022,0.2217,-2.5638,-0.2526,-0.3676,-1.5296,1.3074,0.6636,
23.906959,0.5835,-0.9022,0.2217,-2.5638,-0.2526,-0.3676,-1.8442,1.4081,0.9780,
23.917625,0.5835,-0.9022,0.2217,-0.9671,-0.6634,1.1369,-1.8442,1.4081,0.9780,
23.957327,0.6437,-0.9273,0.3677,-0.9671,-0.6634,1.1369,-1.8442,1.4081,0.9780,
23.976306,0.6437,-0.9273,0.3677,-0.9671,-0.6634,1.1369,-1.0484,1.0408,1.2086,
23.984865,0.6437,-0.9273,0.3677,0.4736,-0.9292,2.8508,-1.0484,1.0408,1.2086,
24.024571,0.7391,-0.8337,0.2637,0.4736,-0.9292,2.8508,-1.0484,1.0408,1.2086,
24.043592,0.7391,-0.8337,0.2637,0.4736,-0.9292,2.8508,0.0448,0.3157,1.0789,
24.053679,0.7391,-0.8337,0.2637,1.7880,-0.2255,3.1998,0.0448,0.3157,1.0789,
24.092413,0.8017,-0.7575,0.0531,1.7880,-0.2255,3.1998,0.0448,0.3157,1.0789,
24.111586,0.8017,-0.7575,0.0531,1.7880,-0.2255,3.1998,-0.0286,0.4030,0.7780,
24.122571,0.8017,-0.7575,0.0531,2.9377,1.0377,1.1699,-0.0286,0.4030,0.7780,
24.161160,0.8860,-0.7991,0.0201,2.9377,1.0377,1.1699,-0.0286,0.4030,0.7780,
24.179949,0.8860,-0.7991,0.0201,2.9377,1.0377,1.1699,-0.4603,0.7336,0.2931,
24.190119,0.8860,-0.7991,0.0201,3.7379,1.4097,-0.1337,-0.4603,0.7336,0.2931,
24.229538,0.9012,-0.9044,0.0327,3.7379,1.4097,-0.1337,-0.4603,0.7336,0.2931,
24.248496,0.9012,-0.9044,0.0327,3.7379,1.4097,-0.1337,-0.6165,0.9710,-0.3019,
24.258676,0.9012,-0.9044,0.0327,4.2802,0.2657,-0.0689,-0.6165,0.9710,-0.3019,
24.297110,0.7597,-0.8402,0.0504,4.2802,0.2657,-0.0689,-0.6165,0.9710,-0.3019,
24.316949,0.7597,-0.8402,0.0504,4.2802,0.2657,-0.0689,-0.1944,0.6535,-0.5954,
24.326628,0.7597,-0.8402,0.0504,3.1564,-0.1135,0.1555,-0.1944,0.6535,-0.5954,
24.365570,0.6234,-0.7470,-0.0243,3.1564,-0.1135,0.1555,-0.1944,0.6535,-0.5954,
24.384615,0.6234,-0.7470,-0.0243,3.1564,-0.1135,0.1555,0.0547,0.0014,-0.5632,
24.395184,0.6234,-0.7470,-0.0243,1.3246,0.5166,-0.3044,0.0547,0.0014,-0.5632,
24.433676,0.5864,-0.7090,-0.0719,1.3246,0.5166,-0.3044,0.0547,0.0014,-0.5632,
24.452479,0.5864,-0.7090,-0.0719,1.3246,0.5166,-0.3044,0.0657,-0.3696,-0.4532,
24.462732,0.5864,-0.7090,-0.0719,0.0867,1.0575,-0.6401,0.0657,-0.3696,-0.4532,
24.507099,0.6329,-0.7240,-0.0765,0.0867,1.0575,-0.6401,0.0657,-0.3696,-0.4532,
24.522680,0.6329,-0.7240,-0.0765,0.0867,1.0575,-0.6401,-0.2935,-0.4200,-0.6663,
24.531861,0.6329,-0.7240,-0.0765,-0.2401,0.8676,-0.7309,-0.2935,-0.4200,-0.6663,
24.572530,0.6166,-0.8833,-0.0538,-0.2401,0.8676,-0.7309,-0.2935,-0.4200,-0.6663,
24.591196,0.6166,-0.8833,-0.0538,-0.2401,0.8676,-0.7309,-0.6699,-0.1217,-1.0097,
24.600663,0.6166,-0.8833,-0.0538,-0.3294,-0.1914,-0.1867,-0.6699,-0.1217,-1.0097,
24.641188,0.5061,-0.8882,0.0131,-0.3294,-0.1914,-0.1867,-0.6699,-0.1217,-1.0097,
24.659026,0.5061,-0.8882,0.0131,-0.3294,-0.1914,-0.1867,-0.3434,-0.1522,-0.6990,
24.668791,0.5061,-0.8882,0.0131,-1.4031,-2.0007,0.4366,-0.3434,-0.1522,-0.6990,
24.708493,0.4703,-0.7523,-0.1019,-1.4031,-2.0007,0.4366,-0.3434,-0.1522,-0.6990,
24.727151,0.4703,-0.7523,-0.1019,-1.4031,-2.0007,0.4366,0.2416,-0.4142,-0.3560,
24.737538,0.4703,-0.7523,-0.1019,-2.2910,-1.0581,0.7507,0.2416,-0.4142,-0.3560,
24.776895,0.5008,-0.7448,-0.1775,-2.2910,-1.0581,0.7507,0.2416,-0.4142,-0.3560,
24.796474,0.5008,-0.7448,-0.1775,-2.2910,-1.0581,0.7507,0.0052,-0.1070,-0.1138,
24.805915,0.5008,-0.7448,-0.1775,-2.3388,-0.2949,-0.7954,0.0052,-0.1070,-0.1138,
24.845589,0.5556,-0.7317,-0.1476,-2.3388,-0.2949,-0.7954,0.0052,-0.1070,-0.1138,
24.864639,0.5556,-0.7317,-0.1476,-2.3388,-0.2949,-0.7954,-0.2709,0.2895,0.0208,
24.872990,0.5556,-0.7317,-0.1476,-1.8524,-0.3623,-0.8530,-0.2709,0.2895,0.0208,
24.913424,0.5500,-0.7106,-0.0808,-1.8524,-0.3623,-0.8530,-0.2709,0.2895,0.0208,
24.932172,0.5500,-0.7106,-0.0808,-1.8524,-0.3623,-0.8530,-0.2821,0.4165,0.0370,
24.940896,0.5500,-0.7106,-0.0808,-1.4371,-0.1000,-0.4403,-0.2821,0.4165,0.0370,
24.982022,0.4816,-0.6665,-0.0541,-1.4371,-0.1000,-0.4403,-0.2821,0.4165,0.0370,
25.009836,0.4816,-0.6665,-0.0541,-1.4371,-0.1000,-0.4403,0.0157,0.5048,0.3453,
25.011320,0.4816,-0.6665,-0.0541,-1.7052,0.3285,-0.1184,0.0157,0.5048,0.3453,
25.049666,0.5581,-0.8645,-0.1446,-1.7052,0.3285,-0.1184,0.0157,0.5048,0.3453,
25.068772,0.5581,-0.8645,-0.1446,-1.7052,0.3285,-0.1184,-0.0631,0.4880,0.8223,
25.078805,0.5581,-0.8645,-0.1446,-1.3330,0.6278,-0.4942,-0.0631,0.4880,0.8223,
25.119108,0.7422,-0.8789,-0.0016,-1.3330,0.6278,-0.4942,-0.0631,0.4880,0.8223,
25.136674,0.7422,-0.8789,-0.0016,-1.3330,0.6278,-0.4942,-0.3318,0.4318,1.2178,
25.146010,0.7422,-0.8789,-0.0016,0.3055,-0.9767,-0.8263,-0.3318,0.4318,1.2178,
25.186334,0.7746,-0.8029,0.1691,0.3055,-0.9767,-0.8263,-0.3318,0.4318,1.2178,
25.205895,0.7746,-0.8029,0.1691,0.3055,-0.9767,-0.8263,0.4912,-0.0256,0.7359,
25.214038,0.7746,-0.8029,0.1691,2.4969,-0.0205,0.8836,0.4912,-0.0256,0.7359,
25.252837,0.7106,-0.8680,-0.0143,2.4969,-0.0205,0.8836,0.4912,-0.0256,0.7359,
25.273512,0.7106,-0.8680,-0.0143,2.4969,-0.0205,0.8836,0.9651,-0.5847,0.2614,
25.285754,0.7106,-0.8680,-0.0143,1.9916,0.4824,1.0349,0.9651,-0.5847,0.2614,
25.321744,0.7232,-0.9029,-0.0695,1.9916,0.4824,1.0349,0.9651,-0.5847,0.2614,
25.341030,0.7232,-0.9029,-0.0695,1.9916,0.4824,1.0349,-0.3396,0.0648,0.1080,
25.350804,0.7232,-0.9029,-0.0695,1.6246,-0.5407,-1.1299,-0.3396,0.0648,0.1080,
25.391656,0.7031,-0.8280,0.1538,1.6246,-0.5407,-1.1299,-0.3396,0.0648,0.1080,
25.408324,0.7031,-0.8280,0.1538,1.6246,-0.5407,-1.1299,-0.3281,0.4365,-0.4495,
25.420525,0.7031,-0.8280,0.1538,1.6464,-0.2261,0.3770,-0.3281,0.4365,-0.4495,
25.459549,0.5337,-0.8755,0.0753,1.6464,-0.2261,0.3770,-0.3281,0.4365,-0.4495,
25.479343,0.5337,-0.8755,0.0753,1.6464,-0.2261,0.3770,-0.0710,0.1245,-0.5488,
25.487710,0.5337,-0.8755,0.0753,0.3209,-0.2373,1.3092,-0.0710,0.1245,-0.5488,
25.527381,0.4940,-0.8134,0.0949,0.3209,-0.2373,1.3092,-0.0710,0.1245,-0.5488,
25.546302,0.4940,-0.8134,0.0949,0.3209,-0.2373,1.3092,-0.1345,0.0383,-0.0974,
25.555058,0.4940,-0.8134,0.0949,-1.0426,-0.4709,0.5665,-0.1345,0.0383,-0.0974,
25.594795,0.5057,-0.8032,0.0784,-1.0426,-0.4709,0.5665,-0.1345,0.0383,-0.0974,
25.613181,0.5057,-0.8032,0.0784,-1.0426,-0.4709,0.5665,-0.1053,-0.0508,0.0638,
25.623802,0.5057,-0.8032,0.0784,-0.8078,0.2521,1.0025,-0.1053,-0.0508,0.0638,
25.664329,0.5071,-0.8381,0.0859,-0.8078,0.2521,1.0025,-0.1053,-0.0508,0.0638,
25.683022,0.5071,-0.8381,0.0859,-0.8078,0.2521,1.0025,-0.1309,-0.1593,0.2427,
25.691432,0.5071,-0.8381,0.0859,-0.7582,0.1336,0.8980,-0.1309,-0.1593,0.2427,
25.731902,0.5446,-0.9393,0.0655,-0.7582,0.1336,0.8980,-0.1309,-0.1593,0.2427,
25.751064,0.5446,-0.9393,0.0655,-0.7582,0.1336,0.8980,-0.4158,0.0063,0.3580,
25.761288,0.5446,-0.9393,0.0655,-0.3113,-0.2784,1.1115,-0.4158,0.0063,0.3580,
25.800591,0.4929,-0.8848,0.1883,-0.3113,-0.2784,1.1115,-0.4158,0.0063,0.3580,
25.820625,0.4929,-0.8848,0.1883,-0.3113,-0.2784,1.1115,-0.4634,0.3745,0.4792,
25.829086,0.4929,-0.8848,0.1883,0.0724,-0.7879,1.4261,-0.4634,0.3745,0.4792,
25.868455,0.4287,-0.9560,0.1869,0.0724,-0.7879,1.4261,-0.4634,0.3745,0.4792,
25.887083,0.4287,-0.9560,0.1869,0.0724,-0.7879,1.4261,0.2136,0.0853,0.7445,
25.898305,0.4287,-0.9560,0.1869,-0.1480,-0.0094,2.2873,0.2136,0.0853,0.7445,
25.936851,0.5240,-0.9436,0.1395,-0.1480,-0.0094,2.2873,0.2136,0.0853,0.7445,
25.955854,0.5240,-0.9436,0.1395,-0.1480,-0.0094,2.2873,0.7272,-0.3932,1.2538,
25.966033,0.5240,-0.9436,0.1395,0.4221,-0.4154,1.3935,0.7272,-0.3932,1.2538,
26.009403,0.5999,-0.8040,0.0747,0.4221,-0.4154,1.3935,0.7272,-0.3932,1.2538,
26.023806,0.5999,-0.8040,0.0747,0.4221,-0.4154,1.3935,1.4028,-0.5501,1.0096,
26.033519,0.5999,-0.8040,0.0747,2.1904,0.5831,0.2573,1.4028,-0.5501,1.0096,
26.073401,0.6156,-0.8420,-0.0892,2.1904,0.5831,0.2573,1.4028,-0.5501,1.0096,
26.093980,0.6156,-0.8420,-0.0892,2.1904,0.5831,0.2573,1.4588,-0.6658,0.2292,
26.105307,0.6156,-0.8420,-0.0892,2.6931,1.3449,-1.6659,1.4588,-0.6658,0.2292,
26.141652,0.5077,-0.8334,-0.1091,2.6931,1.3449,-1.6659,1.4588,-0.6658,0.2292,
26.160373,0.5077,-0.8334,-0.1091,2.6931,1.3449,-1.6659,1.0233,-0.9300,0.0454,
26.170184,0.5077,-0.8334,-0.1091,1.9653,0.6401,-3.1397,1.0233,-0.9300,0.0454,
26.209259,0.5137,-0.7936,-0.0133,1.9653,0.6401,-3.1397,1.0233,-0.9300,0.0454,
26.228739,0.5137,-0.7936,-0.0133,1.9653,0.6401,-3.1397,0.7415,-1.4860,-0.0699,
26.240902,0.5137,-0.7936,-0.0133,1.0804,1.0298,-2.7350,0.7415,-1.4860,-0.0699,
26.279496,0.5441,-0.8591,0.0922,1.0804,1.0298,-2.7350,0.7415,-1.4860,-0.0699,
26.296386,0.5441,-0.8591,0.0922,1.0804,1.0298,-2.7350,0.4649,-1.8452,-0.2498,
26.308375,0.5441,-0.8591,0.0922,0.8728,0.7503,-1.4528,0.4649,-1.8452,-0.2498,
26.346557,0.5947,-0.8928,0.2003,0.8728,0.7503,-1.4528,0.4649,-1.8452,-0.2498,
26.365353,0.5947,-0.8928,0.2003,0.8728,0.7503,-1.4528,0.3805,-1.7505,-0.4410,
26.375616,0.5947,-0.8928,0.2003,0.8600,-0.1651,0.0822,0.3805,-1.7505,-0.4410,
26.414571,0.5776,-0.8652,0.2561,0.8600,-0.1651,0.0822,0.3805,-1.7505,-0.4410,
26.434504,0.5776,-0.8652,0.2561,0.8600,-0.1651,0.0822,0.1140,-1.3949,-0.5630,
26.443695,0.5776,-0.8652,0.2561,0.6239,-0.1583,1.1010,0.1140,-1.3949,-0.5630,
26.481551,0.5098,-0.8483,0.3214,0.6239,-0.1583,1.1010,0.1140,-1.3949,-0.5630,
26.508822,0.5098,-0.8483,0.3214,0.6239,-0.1583,1.1010,0.2559,-1.3609,-0.3925,
26.510032,0.5098,-0.8483,0.3214,-0.0228,-0.3274,2.1025,0.2559,-1.3609,-0.3925,
26.549731,0.4869,-0.7207,0.2807,-0.0228,-0.3274,2.1025,0.2559,-1.3609,-0.3925,
26.568087,0.4869,-0.7207,0.2807,-0.0228,-0.3274,2.1025,0.7329,-1.1590,-0.0695,
26.578132,0.4869,-0.7207,0.2807,-0.7608,0.4455,2.4098,0.7329,-1.1590,-0.0695,
26.618125,0.4671,-0.6603,0.1926,-0.7608,0.4455,2.4098,0.7329,-1.1590,-0.0695,
26.638611,0.4671,-0.6603,0.1926,-0.7608,0.4455,2.4098,0.3137,-0.8212,0.0851,
26.646475,0.4671,-0.6603,0.1926,-0.7393,1.4052,1.5516,0.3137,-0.8212,0.0851,
26.686780,0.5731,-0.9969,0.2982,-0.7393,1.4052,1.5516,0.3137,-0.8212,0.0851,
26.705379,0.5731,-0.9969,0.2982,-0.7393,1.4052,1.5516,-0.2723,-0.5700,0.2731,
26.714950,0.5731,-0.9969,0.2982,-0.2288,0.7880,1.8497,-0.2723,-0.5700,0.2731,
26.755018,0.6396,-0.8519,0.4687,-0.2288,0.7880,1.8497,-0.2723,-0.5700,0.2731,
26.773690,0.6396,-0.8519,0.4687,-0.2288,0.7880,1.8497,0.9469,-1.4283,0.9696,
26.783160,0.6396,-0.8519,0.4687,0.5442,-1.2192,3.3035,0.9469,-1.4283,0.9696,
26.823392,0.8393,-0.9661,0.2352,0.5442,-1.2192,3.3035,0.9469,-1.4283,0.9696,
26.841673,0.8393,-0.9661,0.2352,0.5442,-1.2192,3.3035,2.0653,-2.9053,-0.1477,
26.851188,0.8393,-0.9661,0.2352,2.6371,0.3718,3.3387,2.0653,-2.9053,-0.1477,
26.890255,0.7578,-0.9848,0.1291,2.6371,0.3718,3.3387,2.0653,-2.9053,-0.1477,
26.909845,0.7578,-0.9848,0.1291,2.6371,0.3718,3.3387,1.3278,-2.8895,-0.2958,
26.919763,0.7578,-0.9848,0.1291,2.0537,-1.9829,0.9883,1.3278,-2.8895,-0.2958,
26.958774,0.7440,-0.7866,0.2213,2.0537,-1.9829,0.9883,1.3278,-2.8895,-0.2958,
26.978184,0.7440,-0.7866,0.2213,2.0537,-1.9829,0.9883,0.5435,-1.4818,-1.1221,
26.987801,0.7440,-0.7866,0.2213,1.5464,-0.8114,1.2688,0.5435,-1.4818,-1.1221,
27.027620,0.5172,-0.7385,0.1789,1.5464,-0.8114,1.2688,0.5435,-1.4818,-1.1221,
27.047386,0.5172,-0.7385,0.1789,1.5464,-0.8114,1.2688,0.4290,-0.5136,-1.2412,
27.057993,0.5172,-0.7385,0.1789,-0.5414,-0.1393,2.0963,0.4290,-0.5136,-1.2412,
27.095670,0.4993,-0.7072,0.1833,-0.5414,-0.1393,2.0963,0.4290,-0.5136,-1.2412,
27.115059,0.4993,-0.7072,0.1833,-0.5414,-0.1393,2.0963,-0.0157,-0.7484,-0.8752,
27.125066,0.4993,-0.7072,0.1833,-2.4604,-0.0902,1.5857,-0.0157,-0.7484,-0.8752,
27.165824,0.5461,-0.7295,0.2401,-2.4604,-0.0902,1.5857,-0.0157,-0.7484,-0.8752,
27.183873,0.5461,-0.7295,0.2401,-2.4604,-0.0902,1.5857,-0.0488,-1.0094,-0.6819,
27.193735,0.5461,-0.7295,0.2401,-2.3463,-0.5528,2.7048,-0.0488,-1.0094,-0.6819,
27.233004,0.6626,-0.8887,0.2176,-2.3463,-0.5528,2.7048,-0.0488,-1.0094,-0.6819,
27.251221,0.6626,-0.8887,0.2176,-2.3463,-0.5528,2.7048,0.0527,-0.7711,-0.7639,
27.261937,0.6626,-0.8887,0.2176,-1.8418,-1.2680,3.3246,0.0527,-0.7711,-0.7639,
27.301550,0.6730,-1.1293,0.1627,-1.8418,-1.2680,3.3246,0.0527,-0.7711,-0.7639,
27.320837,0.6730,-1.1293,0.1627,-1.8418,-1.2680,3.3246,0.0928,-0.5454,-0.6641,
27.329836,0.6730,-1.1293,0.1627,-1.3166,-3.8940,2.9209,0.0928,-0.5454,-0.6641,
27.369448,0.4953,-1.0841,0.0722,-1.3166,-3.8940,2.9209,0.0928,-0.5454,-0.6641,
27.388755,0.4953,-1.0841,0.0722,-1.3166,-3.8940,2.9209,0.0968,0.5708,-0.1968,
27.398405,0.4953,-1.0841,0.0722,-1.6129,-5.5718,1.8018,0.0968,0.5708,-0.1968,
27.439305,0.2044,-0.6721,-0.0531,-1.6129,-5.5718,1.8018,0.0968,0.5708,-0.1968,
27.455665,0.2044,-0.6721,-0.0531,-1.6129,-5.5718,1.8018,0.8597,1.2090,1.0854,
27.466656,0.2044,-0.6721,-0.0531,-4.0108,-2.2495,-0.0917,0.8597,1.2090,1.0854,
27.509523,0.4549,-0.6242,-0.3136,-4.0108,-2.2495,-0.0917,0.8597,1.2090,1.0854,
27.525792,0.4549,-0.6242,-0.3136,-4.0108,-2.2495,-0.0917,0.7647,-0.5374,1.4227,
27.536449,0.4549,-0.6242,-0.3136,-4.1782,1.7104,-2.0108,0.7647,-0.5374,1.4227,
27.574608,0.6891,-0.9793,-0.1937,-4.1782,1.7104,-2.0108,0.7647,-0.5374,1.4227,
27.592671,0.6891,-0.9793,-0.1937,-4.1782,1.7104,-2.0108,-0.7985,-0.7160,0.9674,
27.603485,0.6891,-0.9793,-0.1937,-0.3608,-0.0624,-2.7367,-0.7985,-0.7160,0.9674,
27.642665,0.6467,-0.9920,0.1829,-0.3608,-0.0624,-2.7367,-0.7985,-0.7160,0.9674,
27.661742,0.6467,-0.9920,0.1829,-0.3608,-0.0624,-2.7367,-0.6403,0.6841,0.9010,
27.670109,0.6467,-0.9920,0.1829,1.1625,-1.9773,0.1307,-0.6403,0.6841,0.9010,
27.711341,0.5876,-0.7943,0.0806,1.1625,-1.9773,0.1307,-0.6403,0.6841,0.9010,
27.730018,0.5876,-0.7943,0.0806,1.1625,-1.9773,0.1307,0.3874,0.8337,1.0352,
27.739333,0.5876,-0.7943,0.0806,0.7224,-0.4747,1.8145,0.3874,0.8337,1.0352,
27.779232,0.6048,-0.7269,-0.0579,0.7224,-0.4747,1.8145,0.3874,0.8337,1.0352,
27.798679,0.6048,-0.7269,-0.0579,0.7224,-0.4747,1.8145,0.2763,0.7835,0.8870,
27.806671,0.6048,-0.7269,-0.0579,1.3022,1.4627,-0.5351,0.2763,0.7835,0.8870,
27.846310,0.6183,-0.7410,-0.0460,1.3022,1.4627,-0.5351,0.2763,0.7835,0.8870,
27.866892,0.6183,-0.7410,-0.0460,1.3022,1.4627,-0.5351,-0.1141,0.4455,0.8817,
27.874370,0.6183,-0.7410,-0.0460,1.6597,1.7901,-1.4347,-0.1141,0.4455,0.8817,
27.915024,0.7684,-0.7397,0.0501,1.6597,1.7901,-1.4347,-0.1141,0.4455,0.8817,
27.934621,0.7684,-0.7397,0.0501,1.6597,1.7901,-1.4347,0.2227,0.2843,0.5657,
27.944232,0.7684,-0.7397,0.0501,2.8383,1.7612,-0.7664,0.2227,0.2843,0.5657,
27.982179,0.7414,-0.7610,-0.0184,2.8383,1.7612,-0.7664,0.2227,0.2843,0.5657,
28.009671,0.7414,-0.7610,-0.0184,2.8383,1.7612,-0.7664,0.6561,-0.0525,0.0036,
28.012635,0.7414,-0.7610,-0.0184,3.7177,1.6774,-0.7876,0.6561,-0.0525,0.0036,
28.051502,0.7599,-0.9319,-0.1054,3.7177,1.6774,-0.7876,0.6561,-0.0525,0.0036,
28.071521,0.7599,-0.9319,-0.1054,3.7177,1.6774,-0.7876,0.2025,-0.2113,-0.3825,
28.079941,0.7599,-0.9319,-0.1054,2.6907,1.1281,-1.8347,0.2025,-0.2113,-0.3825,
28.121976,0.7241,-1.0596,0.0543,2.6907,1.1281,-1.8347,0.2025,-0.2113,-0.3825,
28.138391,0.7241,-1.0596,0.0543,2.6907,1.1281,-1.8347,-0.6242,0.2642,-0.3541,
28.149493,0.7241,-1.0596,0.0543,3.0748,-1.6388,-1.7127,-0.6242,0.2642,-0.3541,
28.188482,0.6700,-0.7684,0.3379,3.0748,-1.6388,-1.7127,-0.6242,0.2642,-0.3541,
28.206001,0.6700,-0.7684,0.3379,3.0748,-1.6388,-1.7127,0.8727,-0.6591,-0.5983,
28.217551,0.6700,-0.7684,0.3379,1.8898,-0.7821,0.9047,0.8727,-0.6591,-0.5983,
28.256637,0.6048,-0.8950,-0.0091,1.8898,-0.7821,0.9047,0.8727,-0.6591,-0.5983,
28.274758,0.6048,-0.8950,-0.0091,1.8898,-0.7821,0.9047,1.1684,-1.8726,-1.1505,
28.289942,0.6048,-0.8950,-0.0091,0.4455,0.6380,1.1707,1.1684,-1.8726,-1.1505,
28.325637,0.7214,-1.0167,0.0448,0.4455,0.6380,1.1707,1.1684,-1.8726,-1.1505,
28.343755,0.7214,-1.0167,0.0448,0.4455,0.6380,1.1707,-0.7169,-0.9811,-1.1189,
28.353087,0.7214,-1.0167,0.0448,-0.4918,-2.2330,-1.0308,-0.7169,-0.9811,-1.1189,
28.393352,0.7435,-0.9677,0.2987,-0.4918,-2.2330,-1.0308,-0.7169,-0.9811,-1.1189,
28.412006,0.7435,-0.9677,0.2987,-0.4918,-2.2330,-1.0308,-0.9085,0.3312,-1.9627,
28.424057,0.7435,-0.9677,0.2987,0.3382,-3.0783,1.6468,-0.9085,0.3312,-1.9627,
28.461214,0.4114,-0.8471,0.2889,0.3382,-3.0783,1.6468,-0.9085,0.3312,-1.9627,
28.480174,0.4114,-0.8471,0.2889,0.3382,-3.0783,1.6468,0.0282,0.6838,-1.7502,
28.490128,0.4114,-0.8471,0.2889,-2.2721,-3.3216,2.5329,0.0282,0.6838,-1.7502,
28.529487,0.3377,-0.6936,0.1232,-2.2721,-3.3216,2.5329,0.0282,0.6838,-1.7502,
28.548204,0.3377,-0.6936,0.1232,-2.2721,-3.3216,2.5329,0.6715,-0.1939,-0.8284,
28.559021,0.3377,-0.6936,0.1232,-4.9191,-2.1465,1.5411,0.6715,-0.1939,-0.8284,
28.598967,0.5030,-0.6677,-0.0292,-4.9191,-2.1465,1.5411,0.6715,-0.1939,-0.8284,
28.616178,0.5030,-0.6677,-0.0292,-4.9191,-2.1465,1.5411,0.2240,-0.6162,0.0610,
28.625975,0.5030,-0.6677,-0.0292,-4.5149,-1.0366,-0.0289,0.2240,-0.6162,0.0610,
28.664623,0.7330,-0.6546,-0.0122,-4.5149,-1.0366,-0.0289,0.2240,-0.6162,0.0610,
28.683927,0.7330,-0.6546,-0.0122,-4.5149,-1.0366,-0.0289,-0.3309,-0.2976,0.2670,
28.693220,0.7330,-0.6546,-0.0122,-2.0071,-0.8188,-0.4546,-0.3309,-0.2976,0.2670,
28.732450,0.7621,-0.6212,0.0154,-2.0071,-0.8188,-0.4546,-0.3309,-0.2976,0.2670,
28.753002,0.7621,-0.6212,0.0154,-2.0071,-0.8188,-0.4546,-0.4752,0.2882,0.3257,
28.762837,0.7621,-0.6212,0.0154,-0.4604,-0.4085,-0.0781,-0.4752,0.2882,0.3257,
28.801537,0.8895,-0.5677,0.0253,-0.4604,-0.4085,-0.0781,-0.4752,0.2882,0.3257,
28.820208,0.8895,-0.5677,0.0253,-0.4604,-0.4085,-0.0781,-0.2437,0.0699,0.5045,
28.830128,0.8895,-0.5677,0.0253,0.0532,0.3065,0.2051,-0.2437,0.0699,0.5045,
28.869265,1.0920,-0.6556,-0.0667,0.0532,0.3065,0.2051,-0.2437,0.0699,0.5045,
28.888295,1.0920,-0.6556,-0.0667,0.0532,0.3065,0.2051,-0.5017,-0.3015,0.5250,
28.897984,1.0920,-0.6556,-0.0667,1.9975,0.5377,0.1298,-0.5017,-0.3015,0.5250,
28.937574,1.1998,-0.4597,0.0454,1.9975,0.5377,0.1298,-0.5017,-0.3015,0.5250,
28.957222,1.1998,-0.4597,0.0454,1.9975,0.5377,0.1298,-0.1958,-0.2928,-0.0456,
28.966304,1.1998,-0.4597,0.0454,3.9180,0.3813,0.4161,-0.1958,-0.2928,-0.0456,
29.008303,0.9824,-0.4145,-0.1120,3.9180,0.3813,0.4161,-0.1958,-0.2928,-0.0456,
29.025109,0.9824,-0.4145,-0.1120,3.9180,0.3813,0.4161,0.1803,-0.5906,-0.6931,
29.034927,0.9824,-0.4145,-0.1120,2.8830,1.9203,0.8372,0.1803,-0.5906,-0.6931,
29.074267,0.9255,-0.5733,-0.1468,2.8830,1.9203,0.8372,0.1803,-0.5906,-0.6931,
29.093218,0.9255,-0.5733,-0.1468,2.8830,1.9203,0.8372,-0.5027,-0.6512,-1.0221,
29.103521,0.9255,-0.5733,-0.1468,0.8156,0.7146,-0.3588,-0.5027,-0.6512,-1.0221,
29.142293,0.9264,-0.6295,0.0641,0.8156,0.7146,-0.3588,-0.5027,-0.6512,-1.0221,
29.161662,0.9264,-0.6295,0.0641,0.8156,0.7146,-0.3588,-0.2644,-0.1076,-1.2099,
29.171597,0.9264,-0.6295,0.0641,0.3676,-1.6808,0.9649,-0.2644,-0.1076,-1.2099,
29.210606,0.8080,-0.4907,-0.0070,0.3676,-1.6808,0.9649,-0.2644,-0.1076,-1.2099,
29.230698,0.8080,-0.4907,-0.0070,0.3676,-1.6808,0.9649,0.5145,0.4081,-1.2933,
29.239972,0.8080,-0.4907,-0.0070,-0.6297,-1.8124,1.6828,0.5145,0.4081,-1.2933,
29.278923,0.7620,-0.3620,-0.1314,-0.6297,-1.8124,1.6828,0.5145,0.4081,-1.2933,
29.298221,0.7620,-0.3620,-0.1314,-0.6297,-1.8124,1.6828,0.5342,0.6682,-1.2616,
29.308163,0.7620,-0.3620,-0.1314,-1.7376,-1.1829,-0.4282,0.5342,0.6682,-1.2616,
29.346957,1.0064,-0.2394,-0.1364,-1.7376,-1.1829,-0.4282,0.5342,0.6682,-1.2616,
29.366261,1.0064,-0.2394,-0.1364,-1.7376,-1.1829,-0.4282,0.1036,1.3767,-1.1632,
29.375911,1.0064,-0.2394,-0.1364,-1.7345,-0.7070,-1.9929,0.1036,1.3767,-1.1632,
29.414047,1.3796,-0.1592,0.0374,-1.7345,-0.7070,-1.9929,0.1036,1.3767,-1.1632,
29.433316,1.3796,-0.1592,0.0374,-1.7345,-0.7070,-1.9929,-0.6635,3.4052,-2.0616,
29.443788,1.3796,-0.1592,0.0374,2.1157,-1.0264,-3.9310,-0.6635,3.4052,-2.0616,
29.483329,1.2239,-0.0845,0.3504,2.1157,-1.0264,-3.9310,-0.6635,3.4052,-2.0616,
29.501754,1.2239,-0.0845,0.3504,2.1157,-1.0264,-3.9310,-0.3361,5.4023,-3.1230,
29.512062,1.2239,-0.0845,0.3504,5.9608,-2.1195,-4.1303,-0.3361,5.4023,-3.1230,
29.550942,0.6755,0.0196,0.5802,5.9608,-2.1195,-4.1303,-0.3361,5.4023,-3.1230,
29.570099,0.6755,0.0196,0.5802,5.9608,-2.1195,-4.1303,0.4788,5.1382,-2.4515,
29.580186,0.6755,0.0196,0.5802,4.5028,-2.7196,-3.9457,0.4788,5.1382,-2.4515,
29.619312,0.4675,0.0868,0.7048,4.5028,-2.7196,-3.9457,0.4788,5.1382,-2.4515,
29.638648,0.4675,0.0868,0.7048,4.5028,-2.7196,-3.9457,1.1628,3.7187,-1.7431,
29.648435,0.4675,0.0868,0.7048,2.6002,-2.4988,-2.5796,1.1628,3.7187,-1.7431,
29.687477,0.2540,0.2118,0.7556,2.6002,-2.4988,-2.5796,1.1628,3.7187,-1.7431,
29.706493,0.2540,0.2118,0.7556,2.6002,-2.4988,-2.5796,0.6053,2.0220,-0.9357,
29.717521,0.2540,0.2118,0.7556,1.7244,-2.3326,-2.0356,0.6053,2.0220,-0.9357,
29.756760,0.1409,0.1845,0.9888,1.7244,-2.3326,-2.0356,0.6053,2.0220,-0.9357,
29.774703,0.1409,0.1845,0.9888,1.7244,-2.3326,-2.0356,0.3887,1.6078,-0.8010,
29.784500,0.1409,0.1845,0.9888,2.1243,-1.9258,-0.5618,0.3887,1.6078,-0.8010,
29.823872,-0.0978,0.1576,0.9053,2.1243,-1.9258,-0.5618,0.3887,1.6078,-0.8010,
29.843378,-0.0978,0.1576,0.9053,2.1243,-1.9258,-0.5618,1.0010,1.6463,-0.1594,
29.852985,-0.0978,0.1576,0.9053,0.9774,-2.8663,0.9388,1.0010,1.6463,-0.1594,
29.891891,-0.2888,0.1868,0.8213,0.9774,-2.8663,0.9388,1.0010,1.6463,-0.1594,
29.911233,-0.2888,0.1868,0.8213,0.9774,-2.8663,0.9388,0.9273,1.1885,0.3634,
29.921513,-0.2888,0.1868,0.8213,-0.8827,-3.4647,-0.0688,0.9273,1.1885,0.3634,
29.960210,-0.3033,0.3053,0.9658,-0.8827,-3.4647,-0.0688,0.9273,1.1885,0.3634,
29.979865,-0.3033,0.3053,0.9658,-0.8827,-3.4647,-0.0688,0.5296,0.7932,0.5233,
29.989653,-0.3033,0.3053,0.9658,-1.6071,-2.9960,0.2286,0.5296,0.7932,0.5233,
30.028866,-0.2971,0.3238,1.0858,-1.6071,-2.9960,0.2286,0.5296,0.7932,0.5233,
30.047449,-0.2971,0.3238,1.0858,-1.6071,-2.9960,0.2286,0.3726,0.8731,0.7930,
30.057719,-0.2971,0.3238,1.0858,-1.3543,-2.3937,2.3800,0.3726,0.8731,0.7930,
30.097730,-0.2154,0.4078,0.9832,-1.3543,-2.3937,2.3800,0.3726,0.8731,0.7930,
30.117222,-0.2154,0.4078,0.9832,-1.3543,-2.3937,2.3800,0.4331,1.1560,0.8029,
30.125979,-0.2154,0.4078,0.9832,-0.5239,-2.3977,2.8162,0.4331,1.1560,0.8029,
30.165162,-0.2745,0.4843,0.8672,-0.5239,-2.3977,2.8162,0.4331,1.1560,0.8029,
30.184173,-0.2745,0.4843,0.8672,-0.5239,-2.3977,2.8162,0.0452,0.9685,0.8707,
30.194024,-0.2745,0.4843,0.8672,-0.3646,-1.5066,1.2966,0.0452,0.9685,0.8707,
30.233131,-0.2238,0.5511,0.8550,-0.3646,-1.5066,1.2966,0.0452,0.9685,0.8707,
30.252259,-0.2238,0.5511,0.8550,-0.3646,-1.5066,1.2966,0.2921,0.1980,0.8835,
30.262491,-0.2238,0.5511,0.8550,-1.0099,-1.2225,0.8235,0.2921,0.1980,0.8835,
30.301769,-0.1151,0.6194,0.8277,-1.0099,-1.2225,0.8235,0.2921,0.1980,0.8835,
30.320640,-0.1151,0.6194,0.8277,-1.0099,-1.2225,0.8235,0.7993,0.2353,0.9419,
30.330581,-0.1151,0.6194,0.8277,-0.1007,-1.0343,1.6950,0.7993,0.2353,0.9419,
30.369331,-0.0771,0.6486,0.6907,-0.1007,-1.0343,1.6950,0.7993,0.2353,0.9419,
30.389473,-0.0771,0.6486,0.6907,-0.1007,-1.0343,1.6950,0.4887,0.5317,0.9932,
30.399180,-0.0771,0.6486,0.6907,0.2570,-0.6665,0.4272,0.4887,0.5317,0.9932,
30.440176,-0.0233,0.6896,0.6715,0.2570,-0.6665,0.4272,0.4887,0.5317,0.9932,
30.458709,-0.0233,0.6896,0.6715,0.2570,-0.6665,0.4272,0.6902,0.7388,0.7171,
30.468667,-0.0233,0.6896,0.6715,1.0041,-0.8349,0.3977,0.6902,0.7388,0.7171,
30.508146,-0.0849,0.6843,0.5580,1.0041,-0.8349,0.3977,0.6902,0.7388,0.7171,
30.526814,-0.0849,0.6843,0.5580,1.0041,-0.8349,0.3977,0.8853,0.1644,0.5354,
30.539158,-0.0849,0.6843,0.5580,0.3566,-1.0751,0.3577,0.8853,0.1644,0.5354,
30.576406,-0.0369,0.7212,0.5315,0.3566,-1.0751,0.3577,0.8853,0.1644,0.5354,
30.595202,-0.0369,0.7212,0.5315,0.3566,-1.0751,0.3577,0.4420,0.0047,0.5747,
30.605498,-0.0369,0.7212,0.5315,0.1440,-1.0584,-0.6656,0.4420,0.0047,0.5747,
30.645285,0.0084,0.7723,0.4955,0.1440,-1.0584,-0.6656,0.4420,0.0047,0.5747,
30.663896,0.0084,0.7723,0.4955,0.1440,-1.0584,-0.6656,0.3806,0.1237,0.6145,
30.673635,0.0084,0.7723,0.4955,0.1920,-0.8558,-0.2930,0.3806,0.1237,0.6145,
30.712057,0.0357,0.8208,0.5133,0.1920,-0.8558,-0.2930,0.3806,0.1237,0.6145,
30.730800,0.0357,0.8208,0.5133,0.1920,-0.8558,-0.2930,0.0181,0.1581,0.3404,
30.740854,0.0357,0.8208,0.5133,0.6557,-0.2246,-0.7025,0.0181,0.1581,0.3404,
30.781550,0.0115,0.8524,0.5146,0.6557,-0.2246,-0.7025,0.0181,0.1581,0.3404,
30.800139,0.0115,0.8524,0.5146,0.6557,-0.2246,-0.7025,-0.2239,0.3079,0.1186,
30.812026,0.0115,0.8524,0.5146,0.5324,0.2398,-0.5776,-0.2239,0.3079,0.1186,
30.848292,-0.0034,0.8322,0.5289,0.5324,0.2398,-0.5776,-0.2239,0.3079,0.1186,
30.867442,-0.0034,0.8322,0.5289,0.5324,0.2398,-0.5776,-0.5068,0.5521,-0.0031,
30.878800,-0.0034,0.8322,0.5289,0.7635,0.5543,-0.7595,-0.5068,0.5521,-0.0031,
30.917954,-0.0469,0.7908,0.5702,0.7635,0.5543,-0.7595,-0.5068,0.5521,-0.0031,
30.936625,-0.0469,0.7908,0.5702,0.7635,0.5543,-0.7595,-0.2284,0.6447,0.3441,
30.945396,-0.0469,0.7908,0.5702,0.3885,0.2073,-0.4626,-0.2284,0.6447,0.3441,
30.985428,-0.0426,0.8285,0.4962,0.3885,0.2073,-0.4626,-0.2284,0.6447,0.3441,
31.009934,-0.0426,0.8285,0.4962,0.3885,0.2073,-0.4626,-0.2113,0.4918,0.6855,
31.014854,-0.0426,0.8285,0.4962,-0.1480,0.1957,-0.7768,-0.2113,0.4918,0.6855,
31.054096,-0.0100,0.8268,0.5499,-0.1480,0.1957,-0.7768,-0.2113,0.4918,0.6855,
31.072322,-0.0100,0.8268,0.5499,-0.1480,0.1957,-0.7768,-0.6480,0.8010,0.6375,
31.081964,-0.0100,0.8268,0.5499,0.4196,0.8334,-1.4294,-0.6480,0.8010,0.6375,
31.122623,-0.1110,0.7949,0.6310,0.4196,0.8334,-1.4294,-0.6480,0.8010,0.6375,
31.139769,-0.1110,0.7949,0.6310,0.4196,0.8334,-1.4294,-0.4081,0.4759,0.8598,
31.150313,-0.1110,0.7949,0.6310,-0.3946,0.6098,-0.7624,-0.4081,0.4759,0.8598,
31.190624,-0.0223,0.7718,0.7130,-0.3946,0.6098,-0.7624,-0.4081,0.4759,0.8598,
31.209794,-0.0223,0.7718,0.7130,-0.3946,0.6098,-0.7624,0.0504,0.2960,0.9857,
31.218587,-0.0223,0.7718,0.7130,-1.0105,0.3957,0.2764,0.0504,0.2960,0.9857,
31.259341,-0.0388,0.7308,0.6111,-1.0105,0.3957,0.2764,0.0504,0.2960,0.9857,
31.278802,-0.0388,0.7308,0.6111,-1.0105,0.3957,0.2764,-0.1696,0.6955,0.9053,
31.287545,-0.0388,0.7308,0.6111,-0.3172,0.1719,-0.0534,-0.1696,0.6955,0.9053,
31.326720,0.0365,0.7130,0.7210,-0.3172,0.1719,-0.0534,-0.1696,0.6955,0.9053,
31.345639,0.0365,0.7130,0.7210,-0.3172,0.1719,-0.0534,-0.1691,0.6863,0.8569,
31.354577,0.0365,0.7130,0.7210,-0.5737,-0.1124,-0.2832,-0.1691,0.6863,0.8569,
31.393292,0.1124,0.7115,0.6740,-0.5737,-0.1124,-0.2832,-0.1691,0.6863,0.8569,
31.413334,0.1124,0.7115,0.6740,-0.5737,-0.1124,-0.2832,-0.0217,0.8230,0.6311,
31.423336,0.1124,0.7115,0.6740,0.6211,-0.0976,0.5064,-0.0217,0.8230,0.6311,
31.463659,0.0867,0.7249,0.5948,0.6211,-0.0976,0.5064,-0.0217,0.8230,0.6311,
31.482764,0.0867,0.7249,0.5948,0.6211,-0.0976,0.5064,-0.3310,0.8997,0.4147,
31.493247,0.0867,0.7249,0.5948,0.9673,0.0291,-0.8054,-0.3310,0.8997,0.4147,
31.531460,0.0862,0.7476,0.6856,0.9673,0.0291,-0.8054,-0.3310,0.8997,0.4147,
31.550253,0.0862,0.7476,0.6856,0.9673,0.0291,-0.8054,-0.5713,0.9393,0.3245,
31.559783,0.0862,0.7476,0.6856,1.0566,0.5742,-1.0497,-0.5713,0.9393,0.3245,
31.600045,0.1032,0.7301,0.8002,1.0566,0.5742,-1.0497,-0.5713,0.9393,0.3245,
31.619016,0.1032,0.7301,0.8002,1.0566,0.5742,-1.0497,-0.1117,0.6344,0.3770,
31.630632,0.1032,0.7301,0.8002,1.2826,0.5873,0.3322,-0.1117,0.6344,0.3770,
31.666826,-0.0274,0.7717,0.6498,1.2826,0.5873,0.3322,-0.1117,0.6344,0.3770,
31.686148,-0.0274,0.7717,0.6498,1.2826,0.5873,0.3322,-0.0365,0.5527,0.5472,
31.695592,-0.0274,0.7717,0.6498,0.9742,0.6017,0.1897,-0.0365,0.5527,0.5472,
31.736756,0.0155,0.5902,0.8929,0.9742,0.6017,0.1897,-0.0365,0.5527,0.5472,
31.755128,0.0155,0.5902,0.8929,0.9742,0.6017,0.1897,-0.6632,-0.1245,1.1356,
31.765684,0.0155,0.5902,0.8929,-0.9000,0.9576,-0.6553,-0.6632,-0.1245,1.1356,
31.805202,0.1172,0.4096,0.8942,-0.9000,0.9576,-0.6553,-0.6632,-0.1245,1.1356,
31.822957,0.1172,0.4096,0.8942,-0.9000,0.9576,-0.6553,0.1416,0.8282,1.8091,
31.833767,0.1172,0.4096,0.8942,0.2611,-1.7960,2.1922,0.1416,0.8282,1.8091,
31.872655,-0.0010,0.5081,0.6948,0.2611,-1.7960,2.1922,0.1416,0.8282,1.8091,
31.891745,-0.0010,0.5081,0.6948,0.2611,-1.7960,2.1922,-0.3529,1.5651,1.9920,
31.900998,-0.0010,0.5081,0.6948,-0.0374,-1.7086,-0.4235,-0.3529,1.5651,1.9920,
31.941295,0.0925,0.6101,1.1009,-0.0374,-1.7086,-0.4235,-0.3529,1.5651,1.9920,
31.960269,0.0925,0.6101,1.1009,-0.0374,-1.7086,-0.4235,-0.6704,0.8929,0.8236,
31.968674,0.0925,0.6101,1.1009,-0.1859,-0.1175,0.6478,-0.6704,0.8929,0.8236,
32.009520,0.1044,0.5975,1.0935,-0.1859,-0.1175,0.6478,-0.6704,0.8929,0.8236,
32.027494,0.1044,0.5975,1.0935,-0.1859,-0.1175,0.6478,-0.3680,0.2120,-0.4377,
32.039556,0.1044,0.5975,1.0935,0.9733,0.5668,3.1303,-0.3680,0.2120,-0.4377,
32.077994,0.2002,0.4953,0.8931,0.9733,0.5668,3.1303,-0.3680,0.2120,-0.4377,
32.095869,0.2002,0.4953,0.8931,0.9733,0.5668,3.1303,-0.6440,0.3589,-0.9849,
32.105253,0.2002,0.4953,0.8931,1.7688,0.3993,1.2595,-0.6440,0.3589,-0.9849,
32.145634,0.0374,0.4573,0.7850,1.7688,0.3993,1.2595,-0.6440,0.3589,-0.9849,
32.165468,0.0374,0.4573,0.7850,1.7688,0.3993,1.2595,-0.7478,0.6612,-1.0856,
32.173635,0.0374,0.4573,0.7850,2.4834,0.1934,-0.2098,-0.7478,0.6612,-1.0856,
32.214049,-0.0012,0.3727,0.8445,2.4834,0.1934,-0.2098,-0.7478,0.6612,-1.0856,
32.232966,-0.0012,0.3727,0.8445,2.4834,0.1934,-0.2098,-0.8889,1.1472,-1.0471,
32.242472,-0.0012,0.3727,0.8445,2.1630,0.1483,-0.9733,-0.8889,1.1472,-1.0471,
32.282104,-0.0110,0.3174,0.8508,2.1630,0.1483,-0.9733,-0.8889,1.1472,-1.0471,
32.299758,-0.0110,0.3174,0.8508,2.1630,0.1483,-0.9733,0.0901,-0.0282,-0.5294,
32.311213,-0.0110,0.3174,0.8508,1.7828,-0.7589,-0.4095,0.0901,-0.0282,-0.5294,
32.350698,-0.0045,0.4387,0.8245,1.7828,-0.7589,-0.4095,0.0901,-0.0282,-0.5294,
32.368076,-0.0045,0.4387,0.8245,1.7828,-0.7589,-0.4095,-0.2033,0.0512,0.4514,
32.379290,-0.0045,0.4387,0.8245,1.8512,-0.2682,-0.5012,-0.2033,0.0512,0.4514,
32.419824,-0.0474,0.5190,0.9400,1.8512,-0.2682,-0.5012,-0.2033,0.0512,0.4514,
32.438656,-0.0474,0.5190,0.9400,1.8512,-0.2682,-0.5012,-0.4039,-0.7929,-0.4104,
32.447684,-0.0474,0.5190,0.9400,1.3606,1.0678,-0.5378,-0.4039,-0.7929,-0.4104,
32.486433,-0.0774,0.5366,1.0177,1.3606,1.0678,-0.5378,-0.4039,-0.7929,-0.4104,
32.508874,-0.0774,0.5366,1.0177,1.3606,1.0678,-0.5378,0.1674,-0.7255,-1.0807,
32.515566,-0.0774,0.5366,1.0177,0.7379,1.4457,0.8556,0.1674,-0.7255,-1.0807,
32.554773,-0.1544,0.4563,1.1122,0.7379,1.4457,0.8556,0.1674,-0.7255,-1.0807,
32.573504,-0.1544,0.4563,1.1122,0.7379,1.4457,0.8556,-0.3758,-0.4961,-1.6391,
32.583744,-0.1544,0.4563,1.1122,0.5642,1.9496,0.7879,-0.3758,-0.4961,-1.6391,
32.622771,-0.3151,0.2516,1.2439,0.5642,1.9496,0.7879,-0.3758,-0.4961,-1.6391,
32.643064,-0.3151,0.2516,1.2439,0.5642,1.9496,0.7879,0.1513,-1.4195,-1.1658,
32.651445,-0.3151,0.2516,1.2439,-1.7437,0.2322,2.7636,0.1513,-1.4195,-1.1658,
32.691489,-0.2080,0.2375,0.9307,-1.7437,0.2322,2.7636,0.1513,-1.4195,-1.1658,
32.711143,-0.2080,0.2375,0.9307,-1.7437,0.2322,2.7636,-0.0010,-0.9126,0.2837,
32.724561,-0.2080,0.2375,0.9307,-2.9347,-1.1770,1.5848,-0.0010,-0.9126,0.2837,
32.759827,0.0827,0.1776,0.8741,-2.9347,-1.1770,1.5848,-0.0010,-0.9126,0.2837,
32.779292,0.0827,0.1776,0.8741,-2.9347,-1.1770,1.5848,-0.0334,0.3070,0.2831,
32.790106,0.0827,0.1776,0.8741,-0.0187,-1.0696,-0.7111,-0.0334,0.3070,0.2831,
32.828047,0.0015,0.2019,0.9021,-0.0187,-1.0696,-0.7111,-0.0334,0.3070,0.2831,
32.846861,0.0015,0.2019,0.9021,-0.0187,-1.0696,-0.7111,-0.1345,0.1113,0.1691,
32.857432,0.0015,0.2019,0.9021,0.8709,-1.3909,-0.5768,-0.1345,0.1113,0.1691,
32.896642,0.1098,0.1868,0.9855,0.8709,-1.3909,-0.5768,-0.1345,0.1113,0.1691,
32.915141,0.1098,0.1868,0.9855,0.8709,-1.3909,-0.5768,-0.2748,-0.1452,0.3176,
32.925451,0.1098,0.1868,0.9855,0.5167,-1.0103,-0.2208,-0.2748,-0.1452,0.3176,
32.965072,0.1919,0.1909,1.0229,0.5167,-1.0103,-0.2208,-0.2748,-0.1452,0.3176,
32.982484,0.1919,0.1909,1.0229,0.5167,-1.0103,-0.2208,-0.0701,-0.0694,0.1548,
32.992779,0.1919,0.1909,1.0229,1.5877,-1.0766,0.5486,-0.0701,-0.0694,0.1548,
33.033011,0.1882,0.2079,0.9773,1.5877,-1.0766,0.5486,-0.0701,-0.0694,0.1548,
33.051589,0.1882,0.2079,0.9773,1.5877,-1.0766,0.5486,0.1474,-0.1277,-0.0811,
33.060295,0.1882,0.2079,0.9773,1.9187,-1.1560,0.4664,0.1474,-0.1277,-0.0811,
33.100932,0.1442,0.2475,0.8813,1.9187,-1.1560,0.4664,0.1474,-0.1277,-0.0811,
33.119748,0.1442,0.2475,0.8813,1.9187,-1.1560,0.4664,-0.1620,0.0774,-0.1379,
33.128930,0.1442,0.2475,0.8813,1.8643,-0.6289,-0.1674,-0.1620,0.0774,-0.1379,
33.169151,0.0949,0.2865,0.9180,1.8643,-0.6289,-0.1674,-0.1620,0.0774,-0.1379,
33.188330,0.0949,0.2865,0.9180,1.8643,-0.6289,-0.1674,-0.4409,-0.0560,-0.1544,
33.199774,0.0949,0.2865,0.9180,1.1346,0.0161,-0.9350,-0.4409,-0.0560,-0.1544,
33.237451,0.0878,0.2791,1.0635,1.1346,0.0161,-0.9350,-0.4409,-0.0560,-0.1544,
33.256508,0.0878,0.2791,1.0635,1.1346,0.0161,-0.9350,-0.2624,-0.2809,-0.5198,
33.264947,0.0878,0.2791,1.0635,0.7937,0.4691,0.1737,-0.2624,-0.2809,-0.5198,
33.305763,0.0655,0.2622,1.1244,0.7937,0.4691,0.1737,-0.2624,-0.2809,-0.5198,
33.325503,0.0655,0.2622,1.1244,0.7937,0.4691,0.1737,-0.0602,-0.0266,-0.6022,
33.334446,0.0655,0.2622,1.1244,0.7612,0.2330,1.2085,-0.0602,-0.0266,-0.6022,
33.373609,0.0238,0.2342,1.0873,0.7612,0.2330,1.2085,-0.0602,-0.0266,-0.6022,
33.393378,0.0238,0.2342,1.0873,0.7612,0.2330,1.2085,0.2826,0.1109,-0.5030,
33.403171,0.0238,0.2342,1.0873,0.6494,-0.1867,1.5173,0.2826,0.1109,-0.5030,
33.442062,0.0351,0.2562,0.9654,0.6494,-0.1867,1.5173,0.2826,0.1109,-0.5030,
33.461478,0.0351,0.2562,0.9654,0.6494,-0.1867,1.5173,0.6244,-0.0379,-0.2478,
33.471216,0.0351,0.2562,0.9654,0.3369,-0.7036,0.7780,0.6244,-0.0379,-0.2478,
33.510812,-0.0010,0.2944,0.8909,0.3369,-0.7036,0.7780,0.6244,-0.0379,-0.2478,
33.529223,-0.0010,0.2944,0.8909,0.3369,-0.7036,0.7780,0.2920,0.0502,-0.3205,
33.540181,-0.0010,0.2944,0.8909,0.5832,-0.4564,-0.3254,0.2920,0.0502,-0.3205,
33.579074,-0.1122,0.3142,0.9164,0.5832,-0.4564,-0.3254,0.2920,0.0502,-0.3205,
33.598897,-0.1122,0.3142,0.9164,0.5832,-0.4564,-0.3254,-0.2504,0.5471,-0.3094,
33.607804,-0.1122,0.3142,0.9164,0.3203,0.0624,-0.6195,-0.2504,0.5471,-0.3094,
33.646806,-0.2103,0.3000,1.0189,0.3203,0.0624,-0.6195,-0.2504,0.5471,-0.3094,
33.665369,-0.2103,0.3000,1.0189,0.3203,0.0624,-0.6195,-0.5201,0.4910,-0.0235,
33.675555,-0.2103,0.3000,1.0189,-0.6642,0.4267,-0.1895,-0.5201,0.4910,-0.0235,
33.714897,-0.1264,0.2508,1.1529,-0.6642,0.4267,-0.1895,-0.5201,0.4910,-0.0235,
33.733150,-0.1264,0.2508,1.1529,-0.6642,0.4267,-0.1895,0.3042,0.0273,0.1839,
33.744498,-0.1264,0.2508,1.1529,-0.8990,-0.1495,1.4143,0.3042,0.0273,0.1839,
33.782284,-0.0863,0.2585,0.9836,-0.8990,-0.1495,1.4143,0.3042,0.0273,0.1839,
33.802610,-0.0863,0.2585,0.9836,-0.8990,-0.1495,1.4143,0.7593,0.1110,0.3453,
33.810914,-0.0863,0.2585,0.9836,0.0026,-1.0429,1.5885,0.7593,0.1110,0.3453,
33.851263,-0.0318,0.3191,0.8710,0.0026,-1.0429,1.5885,0.7593,0.1110,0.3453,
33.870633,-0.0318,0.3191,0.8710,0.0026,-1.0429,1.5885,0.5187,-0.0659,0.4648,
33.881562,-0.0318,0.3191,0.8710,0.1353,-0.9617,-0.1863,0.5187,-0.0659,0.4648,
33.919605,0.0042,0.3810,0.8773,0.1353,-0.9617,-0.1863,0.5187,-0.0659,0.4648,
33.937896,0.0042,0.3810,0.8773,0.1353,-0.9617,-0.1863,0.1958,0.0413,0.3897,
33.947751,0.0042,0.3810,0.8773,0.6515,-0.4039,-0.5634,0.1958,0.0413,0.3897,
33.986724,-0.0091,0.4235,0.9105,0.6515,-0.4039,-0.5634,0.1958,0.0413,0.3897,
34.008201,-0.0091,0.4235,0.9105,0.6515,-0.4039,-0.5634,0.1571,0.0331,0.2669,
34.015195,-0.0091,0.4235,0.9105,0.6190,-0.0094,-0.2984,0.1571,0.0331,0.2669,
34.054820,-0.0230,0.4245,0.9167,0.6190,-0.0094,-0.2984,0.1571,0.0331,0.2669,
34.074333,-0.0230,0.4245,0.9167,0.6190,-0.0094,-0.2984,0.1216,0.0997,-0.0653,
34.084598,-0.0230,0.4245,0.9167,0.7226,0.2111,0.0363,0.1216,0.0997,-0.0653,
34.125317,-0.0642,0.3889,0.9054,0.7226,0.2111,0.0363,0.1216,0.0997,-0.0653,
34.143633,-0.0642,0.3889,0.9054,0.7226,0.2111,0.0363,0.1204,0.1307,-0.1167,
34.152383,-0.0642,0.3889,0.9054,0.4137,-0.0664,0.0161,0.1204,0.1307,-0.1167,
34.194088,-0.1034,0.3901,0.8618,0.4137,-0.0664,0.0161,0.1204,0.1307,-0.1167,
34.211635,-0.1034,0.3901,0.8618,0.4137,-0.0664,0.0161,0.0553,0.1996,-0.0800,
34.220258,-0.1034,0.3901,0.8618,0.2419,-0.3064,-0.2123,0.0553,0.1996,-0.0800,
34.260849,-0.1285,0.4126,0.8697,0.2419,-0.3064,-0.2123,0.0553,0.1996,-0.0800,
34.279904,-0.1285,0.4126,0.8697,0.2419,-0.3064,-0.2123,-0.1592,0.0852,0.0911,
34.288749,-0.1285,0.4126,0.8697,-0.2141,-0.0723,-0.5878,-0.1592,0.0852,0.0911,
34.329259,-0.1162,0.4072,0.9477,-0.2141,-0.0723,-0.5878,-0.1592,0.0852,0.0911,
34.346473,-0.1162,0.4072,0.9477,-0.2141,-0.0723,-0.5878,-0.1912,-0.0906,0.0644,
34.359783,-0.1162,0.4072,0.9477,-0.2535,0.1982,-0.1811,-0.1912,-0.0906,0.0644,
34.397366,-0.1161,0.3902,0.9628,-0.2535,0.1982,-0.1811,-0.1912,-0.0906,0.0644,
34.415637,-0.1161,0.3902,0.9628,-0.2535,0.1982,-0.1811,-0.0434,0.0539,0.2263,
34.426141,-0.1161,0.3902,0.9628,-0.2377,-0.0145,0.4745,-0.0434,0.0539,0.2263,
34.465839,-0.0939,0.4060,0.9207,-0.2377,-0.0145,0.4745,-0.0434,0.0539,0.2263,
34.484205,-0.0939,0.4060,0.9207,-0.2377,-0.0145,0.4745,-0.0483,0.0819,0.2059,
34.493657,-0.0939,0.4060,0.9207,-0.0911,0.0563,0.2169,-0.0483,0.0819,0.2059,
34.532105,-0.0740,0.3844,0.9576,-0.0911,0.0563,0.2169,-0.0483,0.0819,0.2059,
34.551882,-0.0740,0.3844,0.9576,-0.0911,0.0563,0.2169,-0.1269,-0.0090,0.2782,
34.561881,-0.0740,0.3844,0.9576,-0.0972,0.1200,-0.0179,-0.1269,-0.0090,0.2782,
34.600020,-0.0144,0.3785,0.9487,-0.0972,0.1200,-0.0179,-0.1269,-0.0090,0.2782,
34.619551,-0.0144,0.3785,0.9487,-0.0972,0.1200,-0.0179,0.0662,0.1519,0.2475,
34.630051,-0.0144,0.3785,0.9487,0.4662,-0.1910,0.4850,0.0662,0.1519,0.2475,
34.668104,-0.0203,0.3899,0.9280,0.4662,-0.1910,0.4850,0.0662,0.1519,0.2475,
34.687379,-0.0203,0.3899,0.9280,0.4662,-0.1910,0.4850,-0.0331,0.0385,-0.0144,
34.697419,-0.0203,0.3899,0.9280,0.7496,0.0123,0.0689,-0.0331,0.0385,-0.0144,
34.737395,-0.0292,0.3665,0.9355,0.7496,0.0123,0.0689,-0.0331,0.0385,-0.0144,
34.756958,-0.0292,0.3665,0.9355,0.7496,0.0123,0.0689,-0.1091,0.1930,-0.0511,
34.766962,-0.0292,0.3665,0.9355,0.8168,-0.0715,0.0955,-0.1091,0.1930,-0.0511,
34.805509,-0.0457,0.3766,0.9314,0.8168,-0.0715,0.0955,-0.1091,0.1930,-0.0511,
34.824446,-0.0457,0.3766,0.9314,0.8168,-0.0715,0.0955,-0.0263,0.0086,-0.1310,
34.834312,-0.0457,0.3766,0.9314,0.6416,-0.0955,0.0051,-0.0263,0.0086,-0.1310,
34.873230,-0.0554,0.3708,0.9591,0.6416,-0.0955,0.0051,-0.0263,0.0086,-0.1310,
34.892705,-0.0554,0.3708,0.9591,0.6416,-0.0955,0.0051,-0.0877,0.0648,-0.1660,
34.902721,-0.0554,0.3708,0.9591,0.5778,0.0121,0.1606,-0.0877,0.0648,-0.1660,
34.941969,-0.0604,0.3606,0.9829,0.5778,0.0121,0.1606,-0.0877,0.0648,-0.1660,
34.961272,-0.0604,0.3606,0.9829,0.5778,0.0121,0.1606,-0.0311,0.0159,-0.1984,
34.970652,-0.0604,0.3606,0.9829,0.4653,-0.0265,0.3446,-0.0311,0.0159,-0.1984,
35.010094,-0.0813,0.3626,0.9539,0.4653,-0.0265,0.3446,-0.0311,0.0159,-0.1984,
35.030733,-0.0813,0.3626,0.9539,0.4653,-0.0265,0.3446,0.1341,-0.0324,-0.1806,
35.039821,-0.0813,0.3626,0.9539,0.3548,-0.1734,0.4157,0.1341,-0.0324,-0.1806,
35.078460,-0.0944,0.3686,0.9199,0.3548,-0.1734,0.4157,0.1341,-0.0324,-0.1806,
35.098752,-0.0944,0.3686,0.9199,0.3548,-0.1734,0.4157,0.0620,-0.0678,-0.1935,
35.107165,-0.0944,0.3686,0.9199,0.1594,-0.1022,-0.0128,0.0620,-0.0678,-0.1935,
35.146994,-0.1310,0.3638,0.9426,0.1594,-0.1022,-0.0128,0.0620,-0.0678,-0.1935,
35.165949,-0.1310,0.3638,0.9426,0.1594,-0.1022,-0.0128,-0.0618,-0.1222,-0.1593,
35.175097,-0.1310,0.3638,0.9426,-0.1026,-0.0251,-0.1451,-0.0618,-0.1222,-0.1593,
