
time,gFx,gFy,gFz,ax,ay,az,wx,wy,wz,
0.031856,0.1368,0.5184,0.8106,0.0000,0.0000,0.0000,0.0000,0.0000,0.0000,
0.031975,0.1285,0.5203,0.8157,0.0000,0.0000,0.0000,0.0000,0.0000,0.0000,
0.032083,0.1229,0.5233,0.8186,0.0000,0.0000,0.0000,0.0000,0.0000,0.0000,
0.032179,0.1192,0.5247,0.8189,0.0000,0.0000,0.0000,0.0000,0.0000,0.0000,
0.032268,0.1170,0.5265,0.8194,0.0000,0.0000,0.0000,0.0000,0.0000,0.0000,
0.032356,0.1156,0.5279,0.8201,0.0000,0.0000,0.0000,0.0000,0.0000,0.0000,
0.032446,0.1158,0.5274,0.8196,0.0000,0.0000,0.0000,0.0000,0.0000,0.0000,
0.032525,0.1146,0.5262,0.8233,0.0000,0.0000,0.0000,0.0000,0.0000,0.0000,
0.032596,0.1153,0.5233,0.8286,0.0000,0.0000,0.0000,0.0000,0.0000,0.0000,
0.032680,0.1175,0.5208,0.8336,0.0000,0.0000,0.0000,0.0000,0.0000,0.0000,
0.032764,0.1180,0.5191,0.8428,0.0000,0.0000,0.0000,0.0000,0.0000,0.0000,
0.032837,0.1207,0.5150,0.8484,0.0000,0.0000,0.0000,0.0000,0.0000,0.0000,
0.039513,0.1226,0.5160,0.8548,0.0000,0.0000,0.0000,0.0000,0.0000,0.0000,
0.039782,0.1263,0.5186,0.8604,0.0000,0.0000,0.0000,0.0000,0.0000,0.0000,
0.040090,0.1292,0.5208,0.8636,0.0000,0.0000,0.0000,0.0000,0.0000,0.0000,
0.040575,0.1334,0.5255,0.8663,0.0000,0.0000,0.0000,0.0000,0.0000,0.0000,
0.043809,0.1373,0.5304,0.8680,0.0000,0.0000,0.0000,0.0000,0.0000,0.0000,
0.045326,0.1437,0.5377,0.8712,0.0000,0.0000,0.0000,0.0000,0.0000,0.0000,
0.047898,0.1517,0.5448,0.8714,0.0000,0.0000,0.0000,0.0000,0.0000,0.0000,
0.050737,0.1598,0.5533,0.8726,0.0000,0.0000,0.0000,0.0000,0.0000,0.0000,
0.053582,0.1691,0.5587,0.8719,0.0000,0.0000,0.0000,0.0000,0.0000,0.0000,
0.055393,0.1788,0.5636,0.8709,0.0000,0.0000,0.0000,0.0000,0.0000,0.0000,
0.057778,0.1879,0.5670,0.8707,0.0000,0.0000,0.0000,0.0000,0.0000,0.0000,
0.060082,0.1962,0.5677,0.8682,0.0000,0.0000,0.0000,0.0000,0.0000,0.0000,
0.062656,0.2050,0.5714,0.8682,0.0000,0.0000,0.0000,0.0000,0.0000,0.0000,
0.065014,0.2145,0.5724,0.8699,0.0000,0.0000,0.0000,0.0000,0.0000,0.0000,
0.067299,0.2233,0.5717,0.8741,0.0000,0.0000,0.0000,0.0000,0.0000,0.0000,
0.069637,0.2333,0.5702,0.8755,0.0000,0.0000,0.0000,0.0000,0.0000,0.0000,
0.072749,0.2445,0.5670,0.8741,0.0000,0.0000,0.0000,0.0000,0.0000,0.0000,
0.075151,0.2538,0.5690,0.8741,0.0000,0.0000,0.0000,0.0000,0.0000,0.0000,
0.077256,0.2619,0.5692,0.8777,0.0000,0.0000,0.0000,0.0000,0.0000,0.0000,
0.079562,0.2702,0.5699,0.8807,0.0000,0.0000,0.0000,0.0000,0.0000,0.0000,
0.082050,0.2795,0.5726,0.8846,0.0000,0.0000,0.0000,0.0000,0.0000,0.0000,
0.084482,0.2870,0.5785,0.8880,0.0000,0.0000,0.0000,0.0000,0.0000,0.0000,
0.086904,0.2963,0.5802,0.8883,0.0000,0.0000,0.0000,0.0000,0.0000,0.0000,
0.089649,0.3066,0.5851,0.8851,0.0000,0.0000,0.0000,0.0000,0.0000,0.0000,
0.092051,0.3141,0.5890,0.8804,0.0000,0.0000,0.0000,0.0000,0.0000,0.0000,
0.092502,0.3141,0.5890,0.8804,0.0000,0.0000,0.0000,0.1351,-0.5197,0.3932,
0.094240,0.3257,0.5924,0.8726,0.0000,0.0000,0.0000,0.1351,-0.5197,0.3932,
0.096635,0.3381,0.5944,0.8677,0.0000,0.0000,0.0000,0.1351,-0.5197,0.3932,
0.099213,0.3503,0.5953,0.8648,0.0000,0.0000,0.0000,0.1351,-0.5197,0.3932,
0.101594,0.3606,0.5936,0.8616,0.0000,0.0000,0.0000,0.1351,-0.5197,0.3932,
0.103918,0.3677,0.5905,0.8580,0.0000,0.0000,0.0000,0.1351,-0.5197,0.3932,
0.106820,0.3745,0.5831,0.8514,0.0000,0.0000,0.0000,0.1351,-0.5197,0.3932,
0.108906,0.3784,0.5787,0.8440,0.0000,0.0000,0.0000,0.1351,-0.5197,0.3932,
0.111222,0.3801,0.5717,0.8350,0.0000,0.0000,0.0000,0.1351,-0.5197,0.3932,
0.113711,0.3794,0.5621,0.8252,0.0000,0.0000,0.0000,0.1351,-0.5197,0.3932,
0.116220,0.3777,0.5550,0.8159,0.0000,0.0000,0.0000,0.1351,-0.5197,0.3932,
0.118744,0.3733,0.5531,0.8084,0.0000,0.0000,0.0000,0.1351,-0.5197,0.3932,
0.120995,0.3681,0.5521,0.7993,0.0000,0.0000,0.0000,0.1351,-0.5197,0.3932,
0.123787,0.3591,0.5524,0.7908,0.0000,0.0000,0.0000,0.1351,-0.5197,0.3932,
0.126066,0.3515,0.5548,0.7857,0.0000,0.0000,0.0000,0.1351,-0.5197,0.3932,
0.128445,0.3432,0.5594,0.7810,0.0000,0.0000,0.0000,0.1351,-0.5197,0.3932,
0.130930,0.3344,0.5634,0.7776,0.0000,0.0000,0.0000,0.1351,-0.5197,0.3932,
0.134069,0.3237,0.5677,0.7752,0.0000,0.0000,0.0000,0.1351,-0.5197,0.3932,
0.135779,0.3161,0.5702,0.7752,0.0000,0.0000,0.0000,0.1351,-0.5197,0.3932,
0.138167,0.3093,0.5739,0.7769,0.0000,0.0000,0.0000,0.1351,-0.5197,0.3932,
0.140759,0.3019,0.5731,0.7849,0.0000,0.0000,0.0000,0.1351,-0.5197,0.3932,
0.143309,0.2973,0.5739,0.7993,0.0000,0.0000,0.0000,0.1351,-0.5197,0.3932,
0.145542,0.2929,0.5775,0.8201,0.0000,0.0000,0.0000,0.1351,-0.5197,0.3932,
0.147875,0.2875,0.5829,0.8406,0.0000,0.0000,0.0000,0.1351,-0.5197,0.3932,
0.150429,0.2822,0.5929,0.8672,0.0000,0.0000,0.0000,0.1351,-0.5197,0.3932,
0.153673,0.2770,0.6010,0.8944,0.0000,0.0000,0.0000,0.1351,-0.5197,0.3932,
0.155161,0.2704,0.6002,0.9176,0.0000,0.0000,0.0000,0.1351,-0.5197,0.3932,
0.157585,0.2599,0.5897,0.9371,0.0000,0.0000,0.0000,0.1351,-0.5197,0.3932,
0.160070,0.2418,0.5692,0.9450,0.0000,0.0000,0.0000,0.1351,-0.5197,0.3932,
0.160400,0.2418,0.5692,0.9450,0.0000,0.0000,0.0000,0.6438,-0.1153,-0.0927,
0.162296,0.2270,0.5502,0.9383,0.0000,0.0000,0.0000,0.6438,-0.1153,-0.0927,
0.164899,0.2208,0.5384,0.9154,0.0000,0.0000,0.0000,0.6438,-0.1153,-0.0927,
0.167383,0.2135,0.5282,0.8824,0.0000,0.0000,0.0000,0.6438,-0.1153,-0.0927,
0.167877,0.2135,0.5282,0.8824,0.0000,0.0000,0.0000,0.6438,-0.1153,-0.0927,
0.169824,0.2074,0.5233,0.8499,0.0000,0.0000,0.0000,0.6438,-0.1153,-0.0927,
0.172140,0.2016,0.5286,0.8223,0.0000,0.0000,0.0000,0.6438,-0.1153,-0.0927,
0.175061,0.1993,0.5416,0.7991,0.0000,0.0000,0.0000,0.6438,-0.1153,-0.0927,
0.177050,0.1993,0.5619,0.7764,0.0000,0.0000,0.0000,0.6438,-0.1153,-0.0927,
0.179396,0.2020,0.5834,0.7527,0.0000,0.0000,0.0000,0.6438,-0.1153,-0.0927,
0.181907,0.2035,0.6042,0.7278,0.0000,0.0000,0.0000,0.6438,-0.1153,-0.0927,
0.184441,0.2052,0.6200,0.7026,0.0000,0.0000,0.0000,0.6438,-0.1153,-0.0927,
0.186729,0.2106,0.6322,0.6796,0.0000,0.0000,0.0000,0.6438,-0.1153,-0.0927,
0.189176,0.2221,0.6469,0.6618,0.0000,0.0000,0.0000,0.6438,-0.1153,-0.0927,
0.191696,0.2379,0.6616,0.6515,0.0000,0.0000,0.0000,0.6438,-0.1153,-0.0927,
0.194165,0.2548,0.6750,0.6432,0.0000,0.0000,0.0000,0.6438,-0.1153,-0.0927,
0.196810,0.2763,0.6906,0.6413,0.0000,0.0000,0.0000,0.6438,-0.1153,-0.0927,
0.199475,0.2975,0.7043,0.6452,0.0000,0.0000,0.0000,0.6438,-0.1153,-0.0927,
0.201577,0.3205,0.7150,0.6549,0.0000,0.0000,0.0000,0.6438,-0.1153,-0.0927,
0.203864,0.3401,0.7246,0.6691,0.0000,0.0000,0.0000,0.6438,-0.1153,-0.0927,
0.206304,0.3559,0.7324,0.6901,0.0000,0.0000,0.0000,0.6438,-0.1153,-0.0927,
0.209051,0.3691,0.7351,0.7165,0.0000,0.0000,0.0000,0.6438,-0.1153,-0.0927,
0.218891,0.3848,0.7370,0.7461,0.0000,0.0000,0.0000,0.6438,-0.1153,-0.0927,
0.219428,0.3984,0.7366,0.7764,0.0000,0.0000,0.0000,0.6438,-0.1153,-0.0927,
0.219783,0.4099,0.7370,0.8054,0.0000,0.0000,0.0000,0.6438,-0.1153,-0.0927,
0.220142,0.4212,0.7344,0.8286,0.0000,0.0000,0.0000,0.6438,-0.1153,-0.0927,
0.220882,0.4292,0.7312,0.8455,0.0000,0.0000,0.0000,0.6438,-0.1153,-0.0927,
0.223429,0.4314,0.7285,0.8553,0.0000,0.0000,0.0000,0.6438,-0.1153,-0.0927,
0.225876,0.4248,0.7236,0.8599,0.0000,0.0000,0.0000,0.6438,-0.1153,-0.0927,
0.228470,0.4111,0.7131,0.8577,0.0000,0.0000,0.0000,0.6438,-0.1153,-0.0927,
0.228881,0.4111,0.7131,0.8577,0.0000,0.0000,0.0000,0.5938,-0.1477,0.3420,
0.230696,0.3887,0.6989,0.8524,0.0000,0.0000,0.0000,0.5938,-0.1477,0.3420,
0.233757,0.3559,0.6757,0.8502,0.0000,0.0000,0.0000,0.5938,-0.1477,0.3420,
0.235762,0.3152,0.6481,0.8533,0.0000,0.0000,0.0000,0.5938,-0.1477,0.3420,
0.236167,0.3152,0.6481,0.8533,0.4804,-0.1803,-0.0209,0.5938,-0.1477,0.3420,
0.238629,0.2880,0.6405,0.8611,0.4804,-0.1803,-0.0209,0.5938,-0.1477,0.3420,
0.240364,0.2734,0.6505,0.8672,0.4804,-0.1803,-0.0209,0.5938,-0.1477,0.3420,
0.243011,0.2675,0.6643,0.8773,0.4804,-0.1803,-0.0209,0.5938,-0.1477,0.3420,
0.245372,0.2653,0.6789,0.8888,0.4804,-0.1803,-0.0209,0.5938,-0.1477,0.3420,
0.247867,0.2673,0.6918,0.9044,0.4804,-0.1803,-0.0209,0.5938,-0.1477,0.3420,
0.250820,0.2680,0.7011,0.9107,0.4804,-0.1803,-0.0209,0.5938,-0.1477,0.3420,
0.253653,0.2714,0.7097,0.9090,0.4804,-0.1803,-0.0209,0.5938,-0.1477,0.3420,
0.255152,0.2653,0.7094,0.8993,0.4804,-0.1803,-0.0209,0.5938,-0.1477,0.3420,
0.257435,0.2523,0.7038,0.8814,0.4804,-0.1803,-0.0209,0.5938,-0.1477,0.3420,
0.259991,0.2372,0.6899,0.8653,0.4804,-0.1803,-0.0209,0.5938,-0.1477,0.3420,
0.262416,0.2187,0.6716,0.8533,0.4804,-0.1803,-0.0209,0.5938,-0.1477,0.3420,
0.264756,0.1964,0.6486,0.8460,0.4804,-0.1803,-0.0209,0.5938,-0.1477,0.3420,
0.267574,0.1737,0.6234,0.8450,0.4804,-0.1803,-0.0209,0.5938,-0.1477,0.3420,
0.269669,0.1554,0.5948,0.8541,0.4804,-0.1803,-0.0209,0.5938,-0.1477,0.3420,
0.272046,0.1431,0.5709,0.8690,0.4804,-0.1803,-0.0209,0.5938,-0.1477,0.3420,
0.274913,0.1400,0.5497,0.8804,0.4804,-0.1803,-0.0209,0.5938,-0.1477,0.3420,
0.277117,0.1409,0.5326,0.8883,0.4804,-0.1803,-0.0209,0.5938,-0.1477,0.3420,
0.279494,0.1478,0.5274,0.8932,0.4804,-0.1803,-0.0209,0.5938,-0.1477,0.3420,
0.281761,0.1578,0.5333,0.8958,0.4804,-0.1803,-0.0209,0.5938,-0.1477,0.3420,
0.284522,0.1700,0.5443,0.8954,0.4804,-0.1803,-0.0209,0.5938,-0.1477,0.3420,
0.286813,0.1776,0.5665,0.8958,0.4804,-0.1803,-0.0209,0.5938,-0.1477,0.3420,
0.289065,0.1876,0.5922,0.9032,0.4804,-0.1803,-0.0209,0.5938,-0.1477,0.3420,
0.292082,0.2013,0.6183,0.9127,0.4804,-0.1803,-0.0209,0.5938,-0.1477,0.3420,
0.294314,0.2150,0.6405,0.9188,0.4804,-0.1803,-0.0209,0.5938,-0.1477,0.3420,
0.296812,0.2248,0.6621,0.9198,0.4804,-0.1803,-0.0209,0.5938,-0.1477,0.3420,
0.297190,0.2248,0.6621,0.9198,0.4804,-0.1803,-0.0209,1.5622,-1.2118,-0.0810,
0.298944,0.2335,0.6867,0.9198,0.4804,-0.1803,-0.0209,1.5622,-1.2118,-0.0810,
0.301583,0.2372,0.7038,0.9198,0.4804,-0.1803,-0.0209,1.5622,-1.2118,-0.0810,
0.304143,0.2355,0.7204,0.9178,0.4804,-0.1803,-0.0209,1.5622,-1.2118,-0.0810,
0.304635,0.2355,0.7204,0.9178,0.1025,0.3608,-0.3667,1.5622,-1.2118,-0.0810,
0.306323,0.2335,0.7322,0.9183,0.1025,0.3608,-0.3667,1.5622,-1.2118,-0.0810,
0.308626,0.2399,0.7456,0.9190,0.1025,0.3608,-0.3667,1.5622,-1.2118,-0.0810,
0.311174,0.2543,0.7703,0.9234,0.1025,0.3608,-0.3667,1.5622,-1.2118,-0.0810,
0.313629,0.2736,0.8040,0.9210,0.1025,0.3608,-0.3667,1.5622,-1.2118,-0.0810,
0.315929,0.2963,0.8482,0.9144,0.1025,0.3608,-0.3667,1.5622,-1.2118,-0.0810,
0.318441,0.3237,0.8944,0.9022,0.1025,0.3608,-0.3667,1.5622,-1.2118,-0.0810,
0.320922,0.3501,0.9359,0.8719,0.1025,0.3608,-0.3667,1.5622,-1.2118,-0.0810,
0.323126,0.3708,0.9723,0.8167,0.1025,0.3608,-0.3667,1.5622,-1.2118,-0.0810,
0.326059,0.3867,0.9957,0.7561,0.1025,0.3608,-0.3667,1.5622,-1.2118,-0.0810,
0.328235,0.4014,1.0031,0.6921,0.1025,0.3608,-0.3667,1.5622,-1.2118,-0.0810,
0.331161,0.4190,0.9974,0.6532,0.1025,0.3608,-0.3667,1.5622,-1.2118,-0.0810,
0.333702,0.4270,0.9808,0.6361,0.1025,0.3608,-0.3667,1.5622,-1.2118,-0.0810,
0.335505,0.4339,0.9596,0.6442,0.1025,0.3608,-0.3667,1.5622,-1.2118,-0.0810,
0.338088,0.4319,0.9506,0.6721,0.1025,0.3608,-0.3667,1.5622,-1.2118,-0.0810,
0.340306,0.4290,0.9344,0.6879,0.1025,0.3608,-0.3667,1.5622,-1.2118,-0.0810,
0.342737,0.4133,0.9168,0.6965,0.1025,0.3608,-0.3667,1.5622,-1.2118,-0.0810,
0.345313,0.3906,0.8985,0.7009,0.1025,0.3608,-0.3667,1.5622,-1.2118,-0.0810,
0.347584,0.3664,0.8843,0.7246,0.1025,0.3608,-0.3667,1.5622,-1.2118,-0.0810,
0.350029,0.3352,0.8812,0.7612,0.1025,0.3608,-0.3667,1.5622,-1.2118,-0.0810,
0.353582,0.3027,0.8897,0.8120,0.1025,0.3608,-0.3667,1.5622,-1.2118,-0.0810,
0.355127,0.2829,0.9090,0.8675,0.1025,0.3608,-0.3667,1.5622,-1.2118,-0.0810,
0.357579,0.2714,0.9442,0.9225,0.1025,0.3608,-0.3667,1.5622,-1.2118,-0.0810,
0.360180,0.2805,0.9906,0.9816,0.1025,0.3608,-0.3667,1.5622,-1.2118,-0.0810,
0.362293,0.3037,1.0353,1.0407,0.1025,0.3608,-0.3667,1.5622,-1.2118,-0.0810,
0.364769,0.3037,1.0353,1.0407,0.1025,0.3608,-0.3667,1.3363,-1.9695,0.4506,
0.365151,0.3430,1.0771,1.1123,0.1025,0.3608,-0.3667,1.3363,-1.9695,0.4506,
0.367126,0.3860,1.1062,1.1748,0.1025,0.3608,-0.3667,1.3363,-1.9695,0.4506,
0.369700,0.4390,1.1228,1.2285,0.1025,0.3608,-0.3667,1.3363,-1.9695,0.4506,
0.371956,0.4918,1.1313,1.2581,0.1025,0.3608,-0.3667,1.3363,-1.9695,0.4506,
0.372389,0.4918,1.1313,1.2581,-1.1233,-0.6326,1.5247,1.3363,-1.9695,0.4506,
0.374437,0.5485,1.1311,1.2828,-1.1233,-0.6326,1.5247,1.3363,-1.9695,0.4506,
0.377855,0.6056,1.1323,1.2672,-1.1233,-0.6326,1.5247,1.3363,-1.9695,0.4506,
0.379482,0.6635,1.1226,1.2078,-1.1233,-0.6326,1.5247,1.3363,-1.9695,0.4506,
0.381754,0.7224,1.0957,1.1370,-1.1233,-0.6326,1.5247,1.3363,-1.9695,0.4506,
0.384234,0.7700,1.0583,1.0439,-1.1233,-0.6326,1.5247,1.3363,-1.9695,0.4506,
0.386699,0.8203,1.0351,0.9447,-1.1233,-0.6326,1.5247,1.3363,-1.9695,0.4506,
0.389053,0.8736,1.0241,0.8492,-1.1233,-0.6326,1.5247,1.3363,-1.9695,0.4506,
0.391499,0.9207,1.0077,0.7651,-1.1233,-0.6326,1.5247,1.3363,-1.9695,0.4506,
0.394563,0.9647,0.9899,0.6840,-1.1233,-0.6326,1.5247,1.3363,-1.9695,0.4506,
0.396434,1.0058,0.9760,0.6064,-1.1233,-0.6326,1.5247,1.3363,-1.9695,0.4506,
0.398924,1.0436,0.9620,0.5250,-1.1233,-0.6326,1.5247,1.3363,-1.9695,0.4506,
0.401223,1.0732,0.9454,0.4456,-1.1233,-0.6326,1.5247,1.3363,-1.9695,0.4506,
0.403678,1.1035,0.9281,0.3728,-1.1233,-0.6326,1.5247,1.3363,-1.9695,0.4506,
0.406117,1.1350,0.9183,0.3156,-1.1233,-0.6326,1.5247,1.3363,-1.9695,0.4506,
0.408449,1.1614,0.9142,0.2739,-1.1233,-0.6326,1.5247,1.3363,-1.9695,0.4506,
0.411339,1.1809,0.9129,0.2445,-1.1233,-0.6326,1.5247,1.3363,-1.9695,0.4506,
0.413693,1.2000,0.9242,0.2289,-1.1233,-0.6326,1.5247,1.3363,-1.9695,0.4506,
0.415841,1.2124,0.9405,0.2187,-1.1233,-0.6326,1.5247,1.3363,-1.9695,0.4506,
0.418324,1.2176,0.9635,0.2052,-1.1233,-0.6326,1.5247,1.3363,-1.9695,0.4506,
0.420793,1.2234,0.9857,0.1915,-1.1233,-0.6326,1.5247,1.3363,-1.9695,0.4506,
0.423195,1.2298,1.0133,0.1808,-1.1233,-0.6326,1.5247,1.3363,-1.9695,0.4506,
0.425513,1.2352,1.0444,0.1713,-1.1233,-0.6326,1.5247,1.3363,-1.9695,0.4506,
0.428356,1.2408,1.0732,0.1573,-1.1233,-0.6326,1.5247,1.3363,-1.9695,0.4506,
0.430570,1.2435,1.0930,0.1385,-1.1233,-0.6326,1.5247,1.3363,-1.9695,0.4506,
0.433619,1.2491,1.0986,0.1129,-1.1233,-0.6326,1.5247,1.3363,-1.9695,0.4506,
0.434050,1.2491,1.0986,0.1129,-1.1233,-0.6326,1.5247,1.3862,-3.7411,1.2544,
0.435316,1.2591,1.0954,0.0833,-1.1233,-0.6326,1.5247,1.3862,-3.7411,1.2544,
0.438050,1.2764,1.0908,0.0608,-1.1233,-0.6326,1.5247,1.3862,-3.7411,1.2544,
0.440531,1.2938,1.0876,0.0425,-1.1233,-0.6326,1.5247,1.3862,-3.7411,1.2544,
0.440975,1.2938,1.0876,0.0425,-0.8766,1.6139,1.9220,1.3862,-3.7411,1.2544,
0.442867,1.3045,1.0739,0.0146,-0.8766,1.6139,1.9220,1.3862,-3.7411,1.2544,
0.445384,1.3148,1.0546,-0.0173,-0.8766,1.6139,1.9220,1.3862,-3.7411,1.2544,
0.447575,1.3282,1.0339,-0.0484,-0.8766,1.6139,1.9220,1.3862,-3.7411,1.2544,
0.450077,1.3436,1.0099,-0.0774,-0.8766,1.6139,1.9220,1.3862,-3.7411,1.2544,
0.453862,1.3642,0.9852,-0.1024,-0.8766,1.6139,1.9220,1.3862,-3.7411,1.2544,
0.455094,1.3817,0.9640,-0.1270,-0.8766,1.6139,1.9220,1.3862,-3.7411,1.2544,
0.457318,1.3937,0.9410,-0.1503,-0.8766,1.6139,1.9220,1.3862,-3.7411,1.2544,
0.459686,1.3978,0.9203,-0.1752,-0.8766,1.6139,1.9220,1.3862,-3.7411,1.2544,
0.462307,1.3954,0.9012,-0.2003,-0.8766,1.6139,1.9220,1.3862,-3.7411,1.2544,
0.464640,1.3910,0.8856,-0.2260,-0.8766,1.6139,1.9220,1.3862,-3.7411,1.2544,
0.467068,1.3805,0.8751,-0.2509,-0.8766,1.6139,1.9220,1.3862,-3.7411,1.2544,
0.469491,1.3693,0.8655,-0.2692,-0.8766,1.6139,1.9220,1.3862,-3.7411,1.2544,
0.471939,1.3549,0.8599,-0.2870,-0.8766,1.6139,1.9220,1.3862,-3.7411,1.2544,
0.474372,1.3402,0.8531,-0.3012,-0.8766,1.6139,1.9220,1.3862,-3.7411,1.2544,
0.476972,1.3233,0.8472,-0.3098,-0.8766,1.6139,1.9220,1.3862,-3.7411,1.2544,
0.479615,1.3065,0.8379,-0.3174,-0.8766,1.6139,1.9220,1.3862,-3.7411,1.2544,
0.481760,1.2877,0.8267,-0.3249,-0.8766,1.6139,1.9220,1.3862,-3.7411,1.2544,
0.484031,1.2698,0.8150,-0.3354,-0.8766,1.6139,1.9220,1.3862,-3.7411,1.2544,
0.486497,1.2552,0.8013,-0.3454,-0.8766,1.6139,1.9220,1.3862,-3.7411,1.2544,
0.489075,1.2383,0.7864,-0.3567,-0.8766,1.6139,1.9220,1.3862,-3.7411,1.2544,
0.491550,1.2224,0.7712,-0.3684,-0.8766,1.6139,1.9220,1.3862,-3.7411,1.2544,
0.493988,1.2056,0.7527,-0.3809,-0.8766,1.6139,1.9220,1.3862,-3.7411,1.2544,
0.496406,1.1919,0.7334,-0.3936,-0.8766,1.6139,1.9220,1.3862,-3.7411,1.2544,
0.498951,1.1807,0.7133,-0.4055,-0.8766,1.6139,1.9220,1.3862,-3.7411,1.2544,
0.501230,1.1689,0.6857,-0.4231,-0.8766,1.6139,1.9220,1.3862,-3.7411,1.2544,
0.501680,1.1689,0.6857,-0.4231,-0.8766,1.6139,1.9220,0.8024,-2.1595,-0.4580,
0.503619,1.1519,0.6523,-0.4490,-0.8766,1.6139,1.9220,0.8024,-2.1595,-0.4580,
0.506322,1.1272,0.6171,-0.4815,-0.8766,1.6139,1.9220,0.8024,-2.1595,-0.4580,
0.508680,1.0900,0.5780,-0.5140,-0.8766,1.6139,1.9220,0.8024,-2.1595,-0.4580,
0.509144,1.0900,0.5780,-0.5140,3.4507,1.8184,0.2689,0.8024,-2.1595,-0.4580,
0.510979,1.0458,0.5406,-0.5499,3.4507,1.8184,0.2689,0.8024,-2.1595,-0.4580,
0.513659,1.0026,0.5069,-0.5814,3.4507,1.8184,0.2689,0.8024,-2.1595,-0.4580,
0.515918,0.9564,0.4761,-0.6098,3.4507,1.8184,0.2689,0.8024,-2.1595,-0.4580,
0.518289,0.9144,0.4461,-0.6330,3.4507,1.8184,0.2689,0.8024,-2.1595,-0.4580,
0.520628,0.8809,0.4219,-0.6454,3.4507,1.8184,0.2689,0.8024,-2.1595,-0.4580,
0.523410,0.8538,0.4041,-0.6501,3.4507,1.8184,0.2689,0.8024,-2.1595,-0.4580,
0.525787,0.8328,0.3875,-0.6513,3.4507,1.8184,0.2689,0.8024,-2.1595,-0.4580,
0.527935,0.8206,0.3726,-0.6486,3.4507,1.8184,0.2689,0.8024,-2.1595,-0.4580,
0.530548,0.8096,0.3554,-0.6418,3.4507,1.8184,0.2689,0.8024,-2.1595,-0.4580,
0.533875,0.7979,0.3435,-0.6325,3.4507,1.8184,0.2689,0.8024,-2.1595,-0.4580,
0.535271,0.7830,0.3327,-0.6230,3.4507,1.8184,0.2689,0.8024,-2.1595,-0.4580,
0.538283,0.7629,0.3235,-0.6095,3.4507,1.8184,0.2689,0.8024,-2.1595,-0.4580,
0.540339,0.7368,0.3124,-0.5990,3.4507,1.8184,0.2689,0.8024,-2.1595,-0.4580,
0.542680,0.7082,0.3032,-0.5863,3.4507,1.8184,0.2689,0.8024,-2.1595,-0.4580,
0.545004,0.6804,0.2914,-0.5680,3.4507,1.8184,0.2689,0.8024,-2.1595,-0.4580,
0.547824,0.6571,0.2765,-0.5465,3.4507,1.8184,0.2689,0.8024,-2.1595,-0.4580,
0.550220,0.6403,0.2604,-0.5238,3.4507,1.8184,0.2689,0.8024,-2.1595,-0.4580,
0.552534,0.6252,0.2409,-0.4969,3.4507,1.8184,0.2689,0.8024,-2.1595,-0.4580,
0.556451,0.6151,0.2226,-0.4705,3.4507,1.8184,0.2689,0.8024,-2.1595,-0.4580,
0.557504,0.6059,0.2045,-0.4463,3.4507,1.8184,0.2689,0.8024,-2.1595,-0.4580,
0.560360,0.5939,0.1903,-0.4234,3.4507,1.8184,0.2689,0.8024,-2.1595,-0.4580,
0.562353,0.5792,0.1825,-0.4024,3.4507,1.8184,0.2689,0.8024,-2.1595,-0.4580,
0.565184,0.5619,0.1771,-0.3875,3.4507,1.8184,0.2689,0.8024,-2.1595,-0.4580,
0.567469,0.5438,0.1732,-0.3743,3.4507,1.8184,0.2689,0.8024,-2.1595,-0.4580,
0.569779,0.5257,0.1686,-0.3613,3.4507,1.8184,0.2689,0.8024,-2.1595,-0.4580,
0.570302,0.5257,0.1686,-0.3613,3.4507,1.8184,0.2689,-0.5517,-2.4807,-1.1426,
0.573069,0.5077,0.1651,-0.3532,3.4507,1.8184,0.2689,-0.5517,-2.4807,-1.1426,
0.574835,0.4881,0.1588,-0.3481,3.4507,1.8184,0.2689,-0.5517,-2.4807,-1.1426,
0.577064,0.4698,0.1517,-0.3474,3.4507,1.8184,0.2689,-0.5517,-2.4807,-1.1426,
0.578287,0.4698,0.1517,-0.3474,4.7209,-0.3149,-4.9027,-0.5517,-2.4807,-1.1426,
0.579621,0.4512,0.1405,-0.3484,4.7209,-0.3149,-4.9027,-0.5517,-2.4807,-1.1426,
0.581993,0.4290,0.1319,-0.3462,4.7209,-0.3149,-4.9027,-0.5517,-2.4807,-1.1426,
0.584257,0.4087,0.1282,-0.3396,4.7209,-0.3149,-4.9027,-0.5517,-2.4807,-1.1426,
0.586593,0.3987,0.1239,-0.3344,4.7209,-0.3149,-4.9027,-0.5517,-2.4807,-1.1426,
0.589718,0.3875,0.1199,-0.3337,4.7209,-0.3149,-4.9027,-0.5517,-2.4807,-1.1426,
0.591793,0.3738,0.1129,-0.3332,4.7209,-0.3149,-4.9027,-0.5517,-2.4807,-1.1426,
0.594411,0.3596,0.1075,-0.3310,4.7209,-0.3149,-4.9027,-0.5517,-2.4807,-1.1426,
0.596257,0.3449,0.1019,-0.3288,4.7209,-0.3149,-4.9027,-0.5517,-2.4807,-1.1426,
0.598892,0.3276,0.0980,-0.3291,4.7209,-0.3149,-4.9027,-0.5517,-2.4807,-1.1426,
0.601392,0.3105,0.0916,-0.3276,4.7209,-0.3149,-4.9027,-0.5517,-2.4807,-1.1426,
0.603500,0.2978,0.0840,-0.3249,4.7209,-0.3149,-4.9027,-0.5517,-2.4807,-1.1426,
0.606712,0.2883,0.0728,-0.3178,4.7209,-0.3149,-4.9027,-0.5517,-2.4807,-1.1426,
0.608987,0.2827,0.0608,-0.3105,4.7209,-0.3149,-4.9027,-0.5517,-2.4807,-1.1426,
0.611488,0.2761,0.0484,-0.2988,4.7209,-0.3149,-4.9027,-0.5517,-2.4807,-1.1426,
0.613654,0.2717,0.0379,-0.2885,4.7209,-0.3149,-4.9027,-0.5517,-2.4807,-1.1426,
0.615747,0.2656,0.0281,-0.2765,4.7209,-0.3149,-4.9027,-0.5517,-2.4807,-1.1426,
0.618234,0.2619,0.0200,-0.2621,4.7209,-0.3149,-4.9027,-0.5517,-2.4807,-1.1426,
0.620553,0.2590,0.0129,-0.2477,4.7209,-0.3149,-4.9027,-0.5517,-2.4807,-1.1426,
0.623492,0.2550,0.0034,-0.2384,4.7209,-0.3149,-4.9027,-0.5517,-2.4807,-1.1426,
0.626109,0.2501,-0.0073,-0.2318,4.7209,-0.3149,-4.9027,-0.5517,-2.4807,-1.1426,
0.628229,0.2494,-0.0159,-0.2260,4.7209,-0.3149,-4.9027,-0.5517,-2.4807,-1.1426,
0.630347,0.2533,-0.0254,-0.2218,4.7209,-0.3149,-4.9027,-0.5517,-2.4807,-1.1426,
0.633992,0.2538,-0.0359,-0.2230,4.7209,-0.3149,-4.9027,-0.5517,-2.4807,-1.1426,
0.635405,0.2489,-0.0452,-0.2272,4.7209,-0.3149,-4.9027,-0.5517,-2.4807,-1.1426,
0.637730,0.2489,-0.0452,-0.2272,4.7209,-0.3149,-4.9027,-0.9796,-2.1272,-0.3912,
0.638298,0.2382,-0.0535,-0.2353,4.7209,-0.3149,-4.9027,-0.9796,-2.1272,-0.3912,
0.640275,0.2240,-0.0559,-0.2421,4.7209,-0.3149,-4.9027,-0.9796,-2.1272,-0.3912,
0.642776,0.2103,-0.0581,-0.2455,4.7209,-0.3149,-4.9027,-0.9796,-2.1272,-0.3912,
0.644980,0.1993,-0.0581,-0.2475,4.7209,-0.3149,-4.9027,-0.9796,-2.1272,-0.3912,
0.645366,0.1993,-0.0581,-0.2475,-0.4650,-5.3807,-5.7475,-0.9796,-2.1272,-0.3912,
0.647448,0.1879,-0.0533,-0.2504,-0.4650,-5.3807,-5.7475,-0.9796,-2.1272,-0.3912,
0.650227,0.1756,-0.0523,-0.2541,-0.4650,-5.3807,-5.7475,-0.9796,-2.1272,-0.3912,
0.652291,0.1656,-0.0489,-0.2614,-0.4650,-5.3807,-5.7475,-0.9796,-2.1272,-0.3912,
0.655044,0.1515,-0.0464,-0.2658,-0.4650,-5.3807,-5.7475,-0.9796,-2.1272,-0.3912,
0.657250,0.1392,-0.0415,-0.2670,-0.4650,-5.3807,-5.7475,-0.9796,-2.1272,-0.3912,
0.659649,0.1265,-0.0347,-0.2648,-0.4650,-5.3807,-5.7475,-0.9796,-2.1272,-0.3912,
0.661997,0.1151,-0.0315,-0.2604,-0.4650,-5.3807,-5.7475,-0.9796,-2.1272,-0.3912,
0.664583,0.1021,-0.0313,-0.2509,-0.4650,-5.3807,-5.7475,-0.9796,-2.1272,-0.3912,
0.667352,0.0889,-0.0325,-0.2343,-0.4650,-5.3807,-5.7475,-0.9796,-2.1272,-0.3912,
0.669575,0.0745,-0.0342,-0.2133,-0.4650,-5.3807,-5.7475,-0.9796,-2.1272,-0.3912,
0.671727,0.0623,-0.0340,-0.1898,-0.4650,-5.3807,-5.7475,-0.9796,-2.1272,-0.3912,
0.674963,0.0474,-0.0371,-0.1593,-0.4650,-5.3807,-5.7475,-0.9796,-2.1272,-0.3912,
0.677613,0.0320,-0.0398,-0.1241,-0.4650,-5.3807,-5.7475,-0.9796,-2.1272,-0.3912,
0.679520,0.0183,-0.0435,-0.0850,-0.4650,-5.3807,-5.7475,-0.9796,-2.1272,-0.3912,
0.682874,0.0046,-0.0452,-0.0411,-0.4650,-5.3807,-5.7475,-0.9796,-2.1272,-0.3912,
0.684347,-0.0112,-0.0489,0.0046,-0.4650,-5.3807,-5.7475,-0.9796,-2.1272,-0.3912,
0.686774,-0.0281,-0.0518,0.0530,-0.4650,-5.3807,-5.7475,-0.9796,-2.1272,-0.3912,
0.688929,-0.0450,-0.0542,0.1024,-0.4650,-5.3807,-5.7475,-0.9796,-2.1272,-0.3912,
0.691393,-0.0584,-0.0594,0.1493,-0.4650,-5.3807,-5.7475,-0.9796,-2.1272,-0.3912,
0.693816,-0.0740,-0.0647,0.1910,-0.4650,-5.3807,-5.7475,-0.9796,-2.1272,-0.3912,
0.696325,-0.0882,-0.0708,0.2291,-0.4650,-5.3807,-5.7475,-0.9796,-2.1272,-0.3912,
0.699788,-0.1002,-0.0774,0.2631,-0.4650,-5.3807,-5.7475,-0.9796,-2.1272,-0.3912,
0.701064,-0.1097,-0.0823,0.2912,-0.4650,-5.3807,-5.7475,-0.9796,-2.1272,-0.3912,
0.703734,-0.1239,-0.0867,0.3129,-0.4650,-5.3807,-5.7475,-0.9796,-2.1272,-0.3912,
0.705932,-0.1239,-0.0867,0.3129,-0.4650,-5.3807,-5.7475,-1.6779,-1.6566,0.2718,
0.706355,-0.1317,-0.0880,0.3254,-0.4650,-5.3807,-5.7475,-1.6779,-1.6566,0.2718,
0.709340,-0.1380,-0.0897,0.3318,-0.4650,-5.3807,-5.7475,-1.6779,-1.6566,0.2718,
0.721614,-0.1380,-0.0897,0.3318,-3.9330,-7.1330,-2.5906,-1.6779,-1.6566,0.2718,
0.722118,-0.1471,-0.0933,0.3296,-3.9330,-7.1330,-2.5906,-1.6779,-1.6566,0.2718,
0.722359,-0.1542,-0.0975,0.3230,-3.9330,-7.1330,-2.5906,-1.6779,-1.6566,0.2718,
0.722642,-0.1598,-0.1019,0.3144,-3.9330,-7.1330,-2.5906,-1.6779,-1.6566,0.2718,
0.722872,-0.1649,-0.1041,0.2995,-3.9330,-7.1330,-2.5906,-1.6779,-1.6566,0.2718,
0.723113,-0.1691,-0.1031,0.2819,-3.9330,-7.1330,-2.5906,-1.6779,-1.6566,0.2718,
0.723349,-0.1720,-0.0982,0.2631,-3.9330,-7.1330,-2.5906,-1.6779,-1.6566,0.2718,
0.725472,-0.1710,-0.0911,0.2409,-3.9330,-7.1330,-2.5906,-1.6779,-1.6566,0.2718,
0.727789,-0.1644,-0.0833,0.2204,-3.9330,-7.1330,-2.5906,-1.6779,-1.6566,0.2718,
0.730141,-0.1566,-0.0747,0.2020,-3.9330,-7.1330,-2.5906,-1.6779,-1.6566,0.2718,
0.733782,-0.1446,-0.0718,0.1854,-3.9330,-7.1330,-2.5906,-1.6779,-1.6566,0.2718,
0.735249,-0.1275,-0.0738,0.1705,-3.9330,-7.1330,-2.5906,-1.6779,-1.6566,0.2718,
0.737665,-0.1099,-0.0782,0.1608,-3.9330,-7.1330,-2.5906,-1.6779,-1.6566,0.2718,
0.740075,-0.0899,-0.0828,0.1542,-3.9330,-7.1330,-2.5906,-1.6779,-1.6566,0.2718,
0.742734,-0.0735,-0.0860,0.1546,-3.9330,-7.1330,-2.5906,-1.6779,-1.6566,0.2718,
0.744939,-0.0581,-0.0887,0.1629,-3.9330,-7.1330,-2.5906,-1.6779,-1.6566,0.2718,
0.747255,-0.0423,-0.0936,0.1786,-3.9330,-7.1330,-2.5906,-1.6779,-1.6566,0.2718,
0.750191,-0.0234,-0.0963,0.1984,-3.9330,-7.1330,-2.5906,-1.6779,-1.6566,0.2718,
0.752271,-0.0063,-0.1026,0.2257,-3.9330,-7.1330,-2.5906,-1.6779,-1.6566,0.2718,
0.754786,0.0093,-0.1082,0.2621,-3.9330,-7.1330,-2.5906,-1.6779,-1.6566,0.2718,
0.757339,0.0249,-0.1156,0.3073,-3.9330,-7.1330,-2.5906,-1.6779,-1.6566,0.2718,
0.759739,0.0379,-0.1219,0.3567,-3.9330,-7.1330,-2.5906,-1.6779,-1.6566,0.2718,
0.762131,0.0450,-0.1258,0.4111,-3.9330,-7.1330,-2.5906,-1.6779,-1.6566,0.2718,
0.764388,0.0454,-0.1270,0.4673,-3.9330,-7.1330,-2.5906,-1.6779,-1.6566,0.2718,
0.767358,0.0393,-0.1221,0.5252,-3.9330,-7.1330,-2.5906,-1.6779,-1.6566,0.2718,
0.769726,0.0273,-0.1160,0.5856,-3.9330,-7.1330,-2.5906,-1.6779,-1.6566,0.2718,
0.771761,0.0129,-0.1102,0.6457,-3.9330,-7.1330,-2.5906,-1.6779,-1.6566,0.2718,
0.774950,-0.0029,-0.1036,0.7065,-3.9330,-7.1330,-2.5906,-1.6779,-1.6566,0.2718,
0.775292,-0.0029,-0.1036,0.7065,-3.9330,-7.1330,-2.5906,-1.8903,-1.5535,1.1182,
0.776820,-0.0161,-0.0968,0.7688,-3.9330,-7.1330,-2.5906,-1.8903,-1.5535,1.1182,
0.779165,-0.0288,-0.0906,0.8304,-3.9330,-7.1330,-2.5906,-1.8903,-1.5535,1.1182,
0.781472,-0.0389,-0.0867,0.8885,-3.9330,-7.1330,-2.5906,-1.8903,-1.5535,1.1182,
0.781738,-0.0389,-0.0867,0.8885,-6.2385,-7.1469,-0.0245,-1.8903,-1.5535,1.1182,
0.784279,-0.0454,-0.0821,0.9410,-6.2385,-7.1469,-0.0245,-1.8903,-1.5535,1.1182,
0.786566,-0.0481,-0.0799,0.9867,-6.2385,-7.1469,-0.0245,-1.8903,-1.5535,1.1182,
0.788782,-0.0481,-0.0782,1.0263,-6.2385,-7.1469,-0.0245,-1.8903,-1.5535,1.1182,
0.791152,-0.0415,-0.0738,1.0575,-6.2385,-7.1469,-0.0245,-1.8903,-1.5535,1.1182,
0.793871,-0.0283,-0.0713,1.0810,-6.2385,-7.1469,-0.0245,-1.8903,-1.5535,1.1182,
0.796165,-0.0115,-0.0708,1.0922,-6.2385,-7.1469,-0.0245,-1.8903,-1.5535,1.1182,
0.798587,0.0073,-0.0721,1.0974,-6.2385,-7.1469,-0.0245,-1.8903,-1.5535,1.1182,
0.801250,0.0259,-0.0679,1.0922,-6.2385,-7.1469,-0.0245,-1.8903,-1.5535,1.1182,
0.803603,0.0452,-0.0616,1.0830,-6.2385,-7.1469,-0.0245,-1.8903,-1.5535,1.1182,
0.805729,0.0682,-0.0550,1.0627,-6.2385,-7.1469,-0.0245,-1.8903,-1.5535,1.1182,
0.808284,0.0931,-0.0462,1.0378,-6.2385,-7.1469,-0.0245,-1.8903,-1.5535,1.1182,
0.811060,0.1168,-0.0381,1.0087,-6.2385,-7.1469,-0.0245,-1.8903,-1.5535,1.1182,
0.813665,0.1409,-0.0323,0.9777,-6.2385,-7.1469,-0.0245,-1.8903,-1.5535,1.1182,
0.815580,0.1654,-0.0254,0.9430,-6.2385,-7.1469,-0.0245,-1.8903,-1.5535,1.1182,
0.817964,0.1896,-0.0190,0.9049,-6.2385,-7.1469,-0.0245,-1.8903,-1.5535,1.1182,
0.820343,0.2101,-0.0095,0.8677,-6.2385,-7.1469,-0.0245,-1.8903,-1.5535,1.1182,
0.822926,0.2287,0.0000,0.8318,-6.2385,-7.1469,-0.0245,-1.8903,-1.5535,1.1182,
0.825232,0.2445,0.0088,0.7984,-6.2385,-7.1469,-0.0245,-1.8903,-1.5535,1.1182,
0.827684,0.2587,0.0173,0.7698,-6.2385,-7.1469,-0.0245,-1.8903,-1.5535,1.1182,
0.830202,0.2719,0.0215,0.7444,-6.2385,-7.1469,-0.0245,-1.8903,-1.5535,1.1182,
0.833554,0.2812,0.0261,0.7251,-6.2385,-7.1469,-0.0245,-1.8903,-1.5535,1.1182,
0.835291,0.2868,0.0291,0.7092,-6.2385,-7.1469,-0.0245,-1.8903,-1.5535,1.1182,
0.837958,0.2936,0.0308,0.6970,-6.2385,-7.1469,-0.0245,-1.8903,-1.5535,1.1182,
0.840201,0.2983,0.0313,0.6877,-6.2385,-7.1469,-0.0245,-1.8903,-1.5535,1.1182,
0.843942,0.2983,0.0313,0.6877,-6.2385,-7.1469,-0.0245,-1.4656,-1.0558,1.9363,
0.844369,0.3024,0.0273,0.6828,-6.2385,-7.1469,-0.0245,-1.4656,-1.0558,1.9363,
0.844902,0.3073,0.0220,0.6816,-6.2385,-7.1469,-0.0245,-1.4656,-1.0558,1.9363,
0.847254,0.3134,0.0178,0.6848,-6.2385,-7.1469,-0.0245,-1.4656,-1.0558,1.9363,
0.849791,0.3176,0.0134,0.6950,-6.2385,-7.1469,-0.0245,-1.4656,-1.0558,1.9363,
0.850129,0.3176,0.0134,0.6950,-6.7823,-6.3633,3.1193,-1.4656,-1.0558,1.9363,
0.852229,0.3230,0.0095,0.7114,-6.7823,-6.3633,3.1193,-1.4656,-1.0558,1.9363,
0.855207,0.3276,0.0076,0.7324,-6.7823,-6.3633,3.1193,-1.4656,-1.0558,1.9363,
0.857165,0.3283,0.0022,0.7573,-6.7823,-6.3633,3.1193,-1.4656,-1.0558,1.9363,
0.859512,0.3318,-0.0027,0.7832,-6.7823,-6.3633,3.1193,-1.4656,-1.0558,1.9363,
0.861905,0.3366,-0.0088,0.8108,-6.7823,-6.3633,3.1193,-1.4656,-1.0558,1.9363,
0.864628,0.3410,-0.0186,0.8431,-6.7823,-6.3633,3.1193,-1.4656,-1.0558,1.9363,
0.866856,0.3476,-0.0269,0.8804,-6.7823,-6.3633,3.1193,-1.4656,-1.0558,1.9363,
0.869318,0.3542,-0.0359,0.9188,-6.7823,-6.3633,3.1193,-1.4656,-1.0558,1.9363,
0.871702,0.3640,-0.0450,0.9598,-6.7823,-6.3633,3.1193,-1.4656,-1.0558,1.9363,
0.874057,0.3735,-0.0520,1.0004,-6.7823,-6.3633,3.1193,-1.4656,-1.0558,1.9363,
0.877350,0.3848,-0.0552,1.0402,-6.7823,-6.3633,3.1193,-1.4656,-1.0558,1.9363,
0.879549,0.4002,-0.0601,1.0815,-6.7823,-6.3633,3.1193,-1.4656,-1.0558,1.9363,
0.881810,0.4138,-0.0611,1.1194,-6.7823,-6.3633,3.1193,-1.4656,-1.0558,1.9363,
0.883746,0.4302,-0.0620,1.1550,-6.7823,-6.3633,3.1193,-1.4656,-1.0558,1.9363,
0.886312,0.4500,-0.0647,1.1863,-6.7823,-6.3633,3.1193,-1.4656,-1.0558,1.9363,
0.888837,0.4698,-0.0684,1.2127,-6.7823,-6.3633,3.1193,-1.4656,-1.0558,1.9363,
0.891182,0.4928,-0.0721,1.2340,-6.7823,-6.3633,3.1193,-1.4656,-1.0558,1.9363,
0.894450,0.5135,-0.0779,1.2530,-6.7823,-6.3633,3.1193,-1.4656,-1.0558,1.9363,
0.896156,0.5377,-0.0828,1.2664,-6.7823,-6.3633,3.1193,-1.4656,-1.0558,1.9363,
0.898550,0.5634,-0.0848,1.2738,-6.7823,-6.3633,3.1193,-1.4656,-1.0558,1.9363,
0.900816,0.5870,-0.0830,1.2740,-6.7823,-6.3633,3.1193,-1.4656,-1.0558,1.9363,
0.903504,0.6105,-0.0777,1.2679,-6.7823,-6.3633,3.1193,-1.4656,-1.0558,1.9363,
0.906195,0.6352,-0.0738,1.2545,-6.7823,-6.3633,3.1193,-1.4656,-1.0558,1.9363,
0.908257,0.6581,-0.0686,1.2364,-6.7823,-6.3633,3.1193,-1.4656,-1.0558,1.9363,
0.911586,0.6581,-0.0686,1.2364,-6.7823,-6.3633,3.1193,-1.1534,-0.6368,2.5414,
0.912023,0.6823,-0.0645,1.2144,-6.7823,-6.3633,3.1193,-1.1534,-0.6368,2.5414,
0.913892,0.7106,-0.0645,1.1890,-6.7823,-6.3633,3.1193,-1.1534,-0.6368,2.5414,
0.915595,0.7385,-0.0662,1.1621,-6.7823,-6.3633,3.1193,-1.1534,-0.6368,2.5414,
0.917969,0.7681,-0.0682,1.1306,-6.7823,-6.3633,3.1193,-1.1534,-0.6368,2.5414,
0.918614,0.7681,-0.0682,1.1306,-4.9737,-4.2791,7.6008,-1.1534,-0.6368,2.5414,
0.920396,0.7984,-0.0730,1.1008,-4.9737,-4.2791,7.6008,-1.1534,-0.6368,2.5414,
0.923039,0.8281,-0.0769,1.0688,-4.9737,-4.2791,7.6008,-1.1534,-0.6368,2.5414,
0.925123,0.8567,-0.0821,1.0390,-4.9737,-4.2791,7.6008,-1.1534,-0.6368,2.5414,
0.927988,0.8782,-0.0830,1.0080,-4.9737,-4.2791,7.6008,-1.1534,-0.6368,2.5414,
0.930445,0.8956,-0.0833,0.9796,-4.9737,-4.2791,7.6008,-1.1534,-0.6368,2.5414,
0.933470,0.9107,-0.0882,0.9486,-4.9737,-4.2791,7.6008,-1.1534,-0.6368,2.5414,
0.935667,0.9244,-0.0963,0.9198,-4.9737,-4.2791,7.6008,-1.1534,-0.6368,2.5414,
0.937521,0.9359,-0.1085,0.8939,-4.9737,-4.2791,7.6008,-1.1534,-0.6368,2.5414,
0.940009,0.9432,-0.1234,0.8699,-4.9737,-4.2791,7.6008,-1.1534,-0.6368,2.5414,
0.942229,0.9444,-0.1395,0.8470,-4.9737,-4.2791,7.6008,-1.1534,-0.6368,2.5414,
0.945190,0.9386,-0.1495,0.8272,-4.9737,-4.2791,7.6008,-1.1534,-0.6368,2.5414,
0.947414,0.9251,-0.1559,0.8091,-4.9737,-4.2791,7.6008,-1.1534,-0.6368,2.5414,
0.949499,0.9078,-0.1551,0.7962,-4.9737,-4.2791,7.6008,-1.1534,-0.6368,2.5414,
0.952059,0.8856,-0.1490,0.7930,-4.9737,-4.2791,7.6008,-1.1534,-0.6368,2.5414,
0.954673,0.8653,-0.1414,0.8020,-4.9737,-4.2791,7.6008,-1.1534,-0.6368,2.5414,
0.957074,0.8467,-0.1361,0.8194,-4.9737,-4.2791,7.6008,-1.1534,-0.6368,2.5414,
0.959346,0.8348,-0.1334,0.8458,-4.9737,-4.2791,7.6008,-1.1534,-0.6368,2.5414,
0.962087,0.8316,-0.1351,0.8777,-4.9737,-4.2791,7.6008,-1.1534,-0.6368,2.5414,
0.964622,0.8384,-0.1407,0.9090,-4.9737,-4.2791,7.6008,-1.1534,-0.6368,2.5414,
0.966811,0.8514,-0.1427,0.9422,-4.9737,-4.2791,7.6008,-1.1534,-0.6368,2.5414,
0.969098,0.8690,-0.1424,0.9757,-4.9737,-4.2791,7.6008,-1.1534,-0.6368,2.5414,
0.971807,0.8902,-0.1419,1.0099,-4.9737,-4.2791,7.6008,-1.1534,-0.6368,2.5414,
0.974719,0.9178,-0.1380,1.0429,-4.9737,-4.2791,7.6008,-1.1534,-0.6368,2.5414,
0.976454,0.9501,-0.1339,1.0754,-4.9737,-4.2791,7.6008,-1.1534,-0.6368,2.5414,
0.978993,0.9501,-0.1339,1.0754,-4.9737,-4.2791,7.6008,-0.1122,-0.1481,2.9163,
0.979474,0.9904,-0.1292,1.1088,-4.9737,-4.2791,7.6008,-0.1122,-0.1481,2.9163,
0.981667,1.0387,-0.1234,1.1387,-4.9737,-4.2791,7.6008,-0.1122,-0.1481,2.9163,
0.983904,1.0935,-0.1270,1.1631,-4.9737,-4.2791,7.6008,-0.1122,-0.1481,2.9163,
0.986205,1.1516,-0.1317,1.1822,-4.9737,-4.2791,7.6008,-0.1122,-0.1481,2.9163,
0.986593,1.1516,-0.1317,1.1822,-2.2209,-2.9975,8.6681,-0.1122,-0.1481,2.9163,
0.988768,1.2129,-0.1422,1.1953,-2.2209,-2.9975,8.6681,-0.1122,-0.1481,2.9163,
0.991131,1.2718,-0.1539,1.2051,-2.2209,-2.9975,8.6681,-0.1122,-0.1481,2.9163,
0.993630,1.3285,-0.1647,1.2132,-2.2209,-2.9975,8.6681,-0.1122,-0.1481,2.9163,
0.996598,1.3773,-0.1720,1.2178,-2.2209,-2.9975,8.6681,-0.1122,-0.1481,2.9163,
0.998692,1.4223,-0.1759,1.2202,-2.2209,-2.9975,8.6681,-0.1122,-0.1481,2.9163,
1.001328,1.4604,-0.1732,1.2185,-2.2209,-2.9975,8.6681,-0.1122,-0.1481,2.9163,
1.003320,1.4924,-0.1664,1.2151,-2.2209,-2.9975,8.6681,-0.1122,-0.1481,2.9163,
1.005702,1.5200,-0.1549,1.2090,-2.2209,-2.9975,8.6681,-0.1122,-0.1481,2.9163,
1.008211,1.5444,-0.1459,1.2061,-2.2209,-2.9975,8.6681,-0.1122,-0.1481,2.9163,
1.010552,1.5640,-0.1414,1.2010,-2.2209,-2.9975,8.6681,-0.1122,-0.1481,2.9163,
1.013741,1.5779,-0.1356,1.1990,-2.2209,-2.9975,8.6681,-0.1122,-0.1481,2.9163,
1.015555,1.5874,-0.1285,1.1995,-2.2209,-2.9975,8.6681,-0.1122,-0.1481,2.9163,
1.018210,1.5955,-0.1265,1.2039,-2.2209,-2.9975,8.6681,-0.1122,-0.1481,2.9163,
1.020261,1.6001,-0.1195,1.2115,-2.2209,-2.9975,8.6681,-0.1122,-0.1481,2.9163,
1.022897,1.6001,-0.1134,1.2190,-2.2209,-2.9975,8.6681,-0.1122,-0.1481,2.9163,
1.025361,1.5965,-0.1063,1.2229,-2.2209,-2.9975,8.6681,-0.1122,-0.1481,2.9163,
1.027595,1.5906,-0.0936,1.2273,-2.2209,-2.9975,8.6681,-0.1122,-0.1481,2.9163,
1.030029,1.5848,-0.0816,1.2283,-2.2209,-2.9975,8.6681,-0.1122,-0.1481,2.9163,
1.033388,1.5767,-0.0725,1.2283,-2.2209,-2.9975,8.6681,-0.1122,-0.1481,2.9163,
1.035531,1.5728,-0.0667,1.2283,-2.2209,-2.9975,8.6681,-0.1122,-0.1481,2.9163,
1.038778,1.5740,-0.0650,1.2227,-2.2209,-2.9975,8.6681,-0.1122,-0.1481,2.9163,
1.039757,1.5804,-0.0645,1.2159,-2.2209,-2.9975,8.6681,-0.1122,-0.1481,2.9163,
1.042182,1.5896,-0.0694,1.2032,-2.2209,-2.9975,8.6681,-0.1122,-0.1481,2.9163,
1.044621,1.6048,-0.0725,1.1880,-2.2209,-2.9975,8.6681,-0.1122,-0.1481,2.9163,
1.047248,1.6048,-0.0725,1.1880,-2.2209,-2.9975,8.6681,0.5474,-0.0413,3.0317,
1.047717,1.6214,-0.0784,1.1709,-2.2209,-2.9975,8.6681,0.5474,-0.0413,3.0317,
1.049631,1.6380,-0.0828,1.1519,-2.2209,-2.9975,8.6681,0.5474,-0.0413,3.0317,
1.051976,1.6524,-0.0826,1.1348,-2.2209,-2.9975,8.6681,0.5474,-0.0413,3.0317,
1.055605,1.6666,-0.0779,1.1199,-2.2209,-2.9975,8.6681,0.5474,-0.0413,3.0317,
1.055980,1.6666,-0.0779,1.1199,1.5140,-2.0919,7.0625,0.5474,-0.0413,3.0317,
1.057113,1.6798,-0.0696,1.1042,1.5140,-2.0919,7.0625,0.5474,-0.0413,3.0317,
1.059595,1.6935,-0.0562,1.0878,1.5140,-2.0919,7.0625,0.5474,-0.0413,3.0317,
1.061702,1.7084,-0.0498,1.0717,1.5140,-2.0919,7.0625,0.5474,-0.0413,3.0317,
1.064235,1.7289,-0.0476,1.0531,1.5140,-2.0919,7.0625,0.5474,-0.0413,3.0317,
1.066796,1.7553,-0.0496,1.0319,1.5140,-2.0919,7.0625,0.5474,-0.0413,3.0317,
1.068983,1.7865,-0.0557,1.0097,1.5140,-2.0919,7.0625,0.5474,-0.0413,3.0317,
1.072509,1.8244,-0.0601,0.9840,1.5140,-2.0919,7.0625,0.5474,-0.0413,3.0317,
1.074238,1.8620,-0.0642,0.9584,1.5140,-2.0919,7.0625,0.5474,-0.0413,3.0317,
1.076344,1.8977,-0.0647,0.9300,1.5140,-2.0919,7.0625,0.5474,-0.0413,3.0317,
1.078861,1.9319,-0.0601,0.9005,1.5140,-2.0919,7.0625,0.5474,-0.0413,3.0317,
1.081225,1.9597,-0.0498,0.8726,1.5140,-2.0919,7.0625,0.5474,-0.0413,3.0317,
1.083514,1.9844,-0.0376,0.8470,1.5140,-2.0919,7.0625,0.5474,-0.0413,3.0317,
1.085883,2.0066,-0.0261,0.8272,1.5140,-2.0919,7.0625,0.5474,-0.0413,3.0317,
1.088908,2.0269,-0.0173,0.8145,1.5140,-2.0919,7.0625,0.5474,-0.0413,3.0317,
1.091096,2.0467,-0.0117,0.8040,1.5140,-2.0919,7.0625,0.5474,-0.0413,3.0317,
1.093577,2.0643,-0.0081,0.8008,1.5140,-2.0919,7.0625,0.5474,-0.0413,3.0317,
1.095862,2.0826,-0.0098,0.7996,1.5140,-2.0919,7.0625,0.5474,-0.0413,3.0317,
1.098360,2.1007,-0.0127,0.8018,1.5140,-2.0919,7.0625,0.5474,-0.0413,3.0317,
1.100824,2.1156,-0.0171,0.8096,1.5140,-2.0919,7.0625,0.5474,-0.0413,3.0317,
1.103169,2.1246,-0.0208,0.8223,1.5140,-2.0919,7.0625,0.5474,-0.0413,3.0317,
1.105930,2.1293,-0.0215,0.8348,1.5140,-2.0919,7.0625,0.5474,-0.0413,3.0317,
1.108660,2.1327,-0.0220,0.8484,1.5140,-2.0919,7.0625,0.5474,-0.0413,3.0317,
1.110557,2.1322,-0.0173,0.8604,1.5140,-2.0919,7.0625,0.5474,-0.0413,3.0317,
1.114755,2.1327,-0.0129,0.8719,1.5140,-2.0919,7.0625,0.5474,-0.0413,3.0317,
1.115658,2.1320,-0.0081,0.8797,1.5140,-2.0919,7.0625,0.5474,-0.0413,3.0317,
1.116505,2.1320,-0.0081,0.8797,1.5140,-2.0919,7.0625,1.7546,-0.1480,2.4038,
1.118235,2.1346,-0.0054,0.8809,1.5140,-2.0919,7.0625,1.7546,-0.1480,2.4038,
1.120103,2.1368,-0.0073,0.8782,1.5140,-2.0919,7.0625,1.7546,-0.1480,2.4038,
1.123276,2.1427,-0.0115,0.8716,1.5140,-2.0919,7.0625,1.7546,-0.1480,2.4038,
1.124057,2.1427,-0.0115,0.8716,7.0720,-0.5887,8.8794,1.7546,-0.1480,2.4038,
1.125384,2.1540,-0.0161,0.8602,7.0720,-0.5887,8.8794,1.7546,-0.1480,2.4038,
1.127400,2.1689,-0.0234,0.8465,7.0720,-0.5887,8.8794,1.7546,-0.1480,2.4038,
1.130016,2.1813,-0.0278,0.8286,7.0720,-0.5887,8.8794,1.7546,-0.1480,2.4038,
1.132425,2.1933,-0.0325,0.8062,7.0720,-0.5887,8.8794,1.7546,-0.1480,2.4038,
1.135026,2.2030,-0.0354,0.7808,7.0720,-0.5887,8.8794,1.7546,-0.1480,2.4038,
1.137132,2.2109,-0.0345,0.7532,7.0720,-0.5887,8.8794,1.7546,-0.1480,2.4038,
1.140098,2.2155,-0.0310,0.7226,7.0720,-0.5887,8.8794,1.7546,-0.1480,2.4038,
1.142534,2.2194,-0.0293,0.6899,7.0720,-0.5887,8.8794,1.7546,-0.1480,2.4038,
1.144667,2.2226,-0.0291,0.6562,7.0720,-0.5887,8.8794,1.7546,-0.1480,2.4038,
1.147134,2.2209,-0.0269,0.6208,7.0720,-0.5887,8.8794,1.7546,-0.1480,2.4038,
1.149426,2.2202,-0.0271,0.5861,7.0720,-0.5887,8.8794,1.7546,-0.1480,2.4038,
1.151854,2.2194,-0.0259,0.5516,7.0720,-0.5887,8.8794,1.7546,-0.1480,2.4038,
1.154264,2.2172,-0.0273,0.5172,7.0720,-0.5887,8.8794,1.7546,-0.1480,2.4038,
1.156973,2.2092,-0.0296,0.4888,7.0720,-0.5887,8.8794,1.7546,-0.1480,2.4038,
1.159371,2.1999,-0.0303,0.4649,7.0720,-0.5887,8.8794,1.7546,-0.1480,2.4038,
1.161646,2.1903,-0.0315,0.4436,7.0720,-0.5887,8.8794,1.7546,-0.1480,2.4038,
1.164037,2.1779,-0.0303,0.4260,7.0720,-0.5887,8.8794,1.7546,-0.1480,2.4038,
1.166785,2.1652,-0.0303,0.4153,7.0720,-0.5887,8.8794,1.7546,-0.1480,2.4038,
1.168945,2.1532,-0.0318,0.4087,7.0720,-0.5887,8.8794,1.7546,-0.1480,2.4038,
1.171443,2.1429,-0.0342,0.4043,7.0720,-0.5887,8.8794,1.7546,-0.1480,2.4038,
1.173886,2.1339,-0.0376,0.4009,7.0720,-0.5887,8.8794,1.7546,-0.1480,2.4038,
1.176335,2.1259,-0.0432,0.3975,7.0720,-0.5887,8.8794,1.7546,-0.1480,2.4038,
1.178890,2.1171,-0.0494,0.3955,7.0720,-0.5887,8.8794,1.7546,-0.1480,2.4038,
1.181724,2.1119,-0.0525,0.3948,7.0720,-0.5887,8.8794,1.7546,-0.1480,2.4038,
1.183790,2.1119,-0.0525,0.3948,7.0720,-0.5887,8.8794,2.4365,0.1554,1.2088,
1.184175,2.1117,-0.0535,0.3989,7.0720,-0.5887,8.8794,2.4365,0.1554,1.2088,
1.186083,2.1112,-0.0564,0.4002,7.0720,-0.5887,8.8794,2.4365,0.1554,1.2088,
1.188277,2.1141,-0.0589,0.4016,7.0720,-0.5887,8.8794,2.4365,0.1554,1.2088,
1.191136,2.1227,-0.0640,0.4004,7.0720,-0.5887,8.8794,2.4365,0.1554,1.2088,
1.191431,2.1227,-0.0640,0.4004,10.8551,1.0198,5.4527,2.4365,0.1554,1.2088,
1.193569,2.1320,-0.0704,0.3963,10.8551,1.0198,5.4527,2.4365,0.1554,1.2088,
1.195907,2.1466,-0.0777,0.3882,10.8551,1.0198,5.4527,2.4365,0.1554,1.2088,
1.199698,2.1635,-0.0867,0.3757,10.8551,1.0198,5.4527,2.4365,0.1554,1.2088,
1.200776,2.1818,-0.0975,0.3572,10.8551,1.0198,5.4527,2.4365,0.1554,1.2088,
1.203163,2.2004,-0.1046,0.3340,10.8551,1.0198,5.4527,2.4365,0.1554,1.2088,
1.205486,2.2155,-0.1114,0.3080,10.8551,1.0198,5.4527,2.4365,0.1554,1.2088,
1.209354,2.2270,-0.1170,0.2778,10.8551,1.0198,5.4527,2.4365,0.1554,1.2088,
1.221659,2.2338,-0.1190,0.2443,10.8551,1.0198,5.4527,2.4365,0.1554,1.2088,
1.222195,2.2363,-0.1224,0.2072,10.8551,1.0198,5.4527,2.4365,0.1554,1.2088,
1.222597,2.2355,-0.1236,0.1661,10.8551,1.0198,5.4527,2.4365,0.1554,1.2088,
1.223007,2.2265,-0.1263,0.1258,10.8551,1.0198,5.4527,2.4365,0.1554,1.2088,
1.223366,2.2109,-0.1304,0.0894,10.8551,1.0198,5.4527,2.4365,0.1554,1.2088,
1.223668,2.1923,-0.1341,0.0577,10.8551,1.0198,5.4527,2.4365,0.1554,1.2088,
1.225101,2.1733,-0.1373,0.0266,10.8551,1.0198,5.4527,2.4365,0.1554,1.2088,
1.227537,2.1542,-0.1397,-0.0032,10.8551,1.0198,5.4527,2.4365,0.1554,1.2088,
1.229756,2.1339,-0.1412,-0.0288,10.8551,1.0198,5.4527,2.4365,0.1554,1.2088,
1.232912,2.1154,-0.1444,-0.0511,10.8551,1.0198,5.4527,2.4365,0.1554,1.2088,
1.234995,2.0934,-0.1451,-0.0696,10.8551,1.0198,5.4527,2.4365,0.1554,1.2088,
1.237205,2.0704,-0.1471,-0.0845,10.8551,1.0198,5.4527,2.4365,0.1554,1.2088,
1.239553,2.0465,-0.1454,-0.0958,10.8551,1.0198,5.4527,2.4365,0.1554,1.2088,
1.241996,2.0235,-0.1468,-0.1019,10.8551,1.0198,5.4527,2.4365,0.1554,1.2088,
1.244984,2.0025,-0.1481,-0.1053,10.8551,1.0198,5.4527,2.4365,0.1554,1.2088,
1.247224,1.9822,-0.1493,-0.1048,10.8551,1.0198,5.4527,2.4365,0.1554,1.2088,
1.250015,1.9680,-0.1527,-0.1019,10.8551,1.0198,5.4527,2.4365,0.1554,1.2088,
1.252330,1.9580,-0.1600,-0.0975,10.8551,1.0198,5.4527,2.4365,0.1554,1.2088,
1.253095,1.9580,-0.1600,-0.0975,10.8551,1.0198,5.4527,2.8022,-0.2391,0.0713,
1.254637,1.9551,-0.1659,-0.0909,10.8551,1.0198,5.4527,2.8022,-0.2391,0.0713,
1.256700,1.9573,-0.1739,-0.0838,10.8551,1.0198,5.4527,2.8022,-0.2391,0.0713,
1.259344,1.9641,-0.1791,-0.0789,10.8551,1.0198,5.4527,2.8022,-0.2391,0.0713,
1.261111,1.9641,-0.1791,-0.0789,12.1074,0.9238,1.6203,2.8022,-0.2391,0.0713,
1.261818,1.9751,-0.1803,-0.0774,12.1074,0.9238,1.6203,2.8022,-0.2391,0.0713,
1.263986,1.9864,-0.1796,-0.0782,12.1074,0.9238,1.6203,2.8022,-0.2391,0.0713,
1.266532,1.9988,-0.1778,-0.0843,12.1074,0.9238,1.6203,2.8022,-0.2391,0.0713,
1.268932,2.0074,-0.1734,-0.0943,12.1074,0.9238,1.6203,2.8022,-0.2391,0.0713,
1.271066,2.0142,-0.1671,-0.1087,12.1074,0.9238,1.6203,2.8022,-0.2391,0.0713,
1.273570,2.0189,-0.1608,-0.1261,12.1074,0.9238,1.6203,2.8022,-0.2391,0.0713,
1.276286,2.0201,-0.1571,-0.1441,12.1074,0.9238,1.6203,2.8022,-0.2391,0.0713,
1.278781,2.0191,-0.1544,-0.1644,12.1074,0.9238,1.6203,2.8022,-0.2391,0.0713,
1.281122,2.0169,-0.1534,-0.1854,12.1074,0.9238,1.6203,2.8022,-0.2391,0.0713,
1.283789,2.0110,-0.1522,-0.2069,12.1074,0.9238,1.6203,2.8022,-0.2391,0.0713,
1.286055,2.0037,-0.1537,-0.2296,12.1074,0.9238,1.6203,2.8022,-0.2391,0.0713,
1.288363,1.9949,-0.1556,-0.2541,12.1074,0.9238,1.6203,2.8022,-0.2391,0.0713,
1.290845,1.9847,-0.1554,-0.2763,12.1074,0.9238,1.6203,2.8022,-0.2391,0.0713,
1.293718,1.9700,-0.1578,-0.2978,12.1074,0.9238,1.6203,2.8022,-0.2391,0.0713,
1.295710,1.9556,-0.1571,-0.3161,12.1074,0.9238,1.6203,2.8022,-0.2391,0.0713,
1.297983,1.9397,-0.1586,-0.3310,12.1074,0.9238,1.6203,2.8022,-0.2391,0.0713,
1.300633,1.9238,-0.1612,-0.3449,12.1074,0.9238,1.6203,2.8022,-0.2391,0.0713,
1.303188,1.9067,-0.1622,-0.3557,12.1074,0.9238,1.6203,2.8022,-0.2391,0.0713,
1.305347,1.8896,-0.1637,-0.3603,12.1074,0.9238,1.6203,2.8022,-0.2391,0.0713,
1.307983,1.8745,-0.1683,-0.3618,12.1074,0.9238,1.6203,2.8022,-0.2391,0.0713,
1.310667,1.8552,-0.1737,-0.3601,12.1074,0.9238,1.6203,2.8022,-0.2391,0.0713,
1.314159,1.8376,-0.1764,-0.3572,12.1074,0.9238,1.6203,2.8022,-0.2391,0.0713,
1.315223,1.8183,-0.1818,-0.3518,12.1074,0.9238,1.6203,2.8022,-0.2391,0.0713,
1.317773,1.7997,-0.1864,-0.3498,12.1074,0.9238,1.6203,2.8022,-0.2391,0.0713,
1.320761,1.7829,-0.1888,-0.3452,12.1074,0.9238,1.6203,2.8022,-0.2391,0.0713,
1.321656,1.7829,-0.1888,-0.3452,12.1074,0.9238,1.6203,2.3603,-0.3247,-1.0317,
1.322894,1.7658,-0.1893,-0.3425,12.1074,0.9238,1.6203,2.3603,-0.3247,-1.0317,
1.326610,1.7470,-0.1898,-0.3398,12.1074,0.9238,1.6203,2.3603,-0.3247,-1.0317,
1.327815,1.7272,-0.1888,-0.3376,12.1074,0.9238,1.6203,2.3603,-0.3247,-1.0317,
1.328699,1.7272,-0.1888,-0.3376,10.8241,-0.7619,-2.8355,2.3603,-0.3247,-1.0317,
1.330112,1.7113,-0.1874,-0.3359,10.8241,-0.7619,-2.8355,2.3603,-0.3247,-1.0317,
1.332084,1.6954,-0.1879,-0.3335,10.8241,-0.7619,-2.8355,2.3603,-0.3247,-1.0317,
1.334741,1.6839,-0.1925,-0.3325,10.8241,-0.7619,-2.8355,2.3603,-0.3247,-1.0317,
1.337056,1.6742,-0.1959,-0.3362,10.8241,-0.7619,-2.8355,2.3603,-0.3247,-1.0317,
1.339438,1.6668,-0.1998,-0.3398,10.8241,-0.7619,-2.8355,2.3603,-0.3247,-1.0317,
1.342265,1.6578,-0.2003,-0.3449,10.8241,-0.7619,-2.8355,2.3603,-0.3247,-1.0317,
1.344606,1.6527,-0.2038,-0.3520,10.8241,-0.7619,-2.8355,2.3603,-0.3247,-1.0317,
1.347435,1.6456,-0.2069,-0.3625,10.8241,-0.7619,-2.8355,2.3603,-0.3247,-1.0317,
1.349400,1.6385,-0.2094,-0.3735,10.8241,-0.7619,-2.8355,2.3603,-0.3247,-1.0317,
1.351707,1.6339,-0.2086,-0.3860,10.8241,-0.7619,-2.8355,2.3603,-0.3247,-1.0317,
1.354423,1.6272,-0.2103,-0.3980,10.8241,-0.7619,-2.8355,2.3603,-0.3247,-1.0317,
1.356709,1.6197,-0.2128,-0.4080,10.8241,-0.7619,-2.8355,2.3603,-0.3247,-1.0317,
1.360044,1.6106,-0.2130,-0.4199,10.8241,-0.7619,-2.8355,2.3603,-0.3247,-1.0317,
1.361579,1.5972,-0.2118,-0.4317,10.8241,-0.7619,-2.8355,2.3603,-0.3247,-1.0317,
1.363907,1.5823,-0.2094,-0.4439,10.8241,-0.7619,-2.8355,2.3603,-0.3247,-1.0317,
1.366513,1.5662,-0.2069,-0.4551,10.8241,-0.7619,-2.8355,2.3603,-0.3247,-1.0317,
1.368759,1.5461,-0.2040,-0.4634,10.8241,-0.7619,-2.8355,2.3603,-0.3247,-1.0317,
1.371935,1.5249,-0.2003,-0.4732,10.8241,-0.7619,-2.8355,2.3603,-0.3247,-1.0317,
1.373790,1.4978,-0.1974,-0.4820,10.8241,-0.7619,-2.8355,2.3603,-0.3247,-1.0317,
1.377174,1.4729,-0.1944,-0.4896,10.8241,-0.7619,-2.8355,2.3603,-0.3247,-1.0317,
1.379413,1.4482,-0.1925,-0.4940,10.8241,-0.7619,-2.8355,2.3603,-0.3247,-1.0317,
1.381015,1.4213,-0.1937,-0.4974,10.8241,-0.7619,-2.8355,2.3603,-0.3247,-1.0317,
1.383450,1.3935,-0.1932,-0.5003,10.8241,-0.7619,-2.8355,2.3603,-0.3247,-1.0317,
1.385896,1.3676,-0.1930,-0.4993,10.8241,-0.7619,-2.8355,2.3603,-0.3247,-1.0317,
1.388867,1.3676,-0.1930,-0.4993,10.8241,-0.7619,-2.8355,1.5350,-0.5011,-1.8200,
1.389500,1.3431,-0.1901,-0.4952,10.8241,-0.7619,-2.8355,1.5350,-0.5011,-1.8200,
1.391036,1.3219,-0.1837,-0.4906,10.8241,-0.7619,-2.8355,1.5350,-0.5011,-1.8200,
1.394022,1.3009,-0.1778,-0.4864,10.8241,-0.7619,-2.8355,1.5350,-0.5011,-1.8200,
1.395789,1.2823,-0.1686,-0.4820,10.8241,-0.7619,-2.8355,1.5350,-0.5011,-1.8200,
1.396144,1.2823,-0.1686,-0.4820,8.4202,-2.3407,-5.5982,1.5350,-0.5011,-1.8200,
1.398015,1.2681,-0.1610,-0.4761,8.4202,-2.3407,-5.5982,1.5350,-0.5011,-1.8200,
1.400328,1.2571,-0.1551,-0.4729,8.4202,-2.3407,-5.5982,1.5350,-0.5011,-1.8200,
1.403070,1.2491,-0.1500,-0.4664,8.4202,-2.3407,-5.5982,1.5350,-0.5011,-1.8200,
1.405352,1.2440,-0.1478,-0.4603,8.4202,-2.3407,-5.5982,1.5350,-0.5011,-1.8200,
1.407654,1.2408,-0.1490,-0.4541,8.4202,-2.3407,-5.5982,1.5350,-0.5011,-1.8200,
1.411321,1.2420,-0.1510,-0.4471,8.4202,-2.3407,-5.5982,1.5350,-0.5011,-1.8200,
1.413709,1.2462,-0.1505,-0.4410,8.4202,-2.3407,-5.5982,1.5350,-0.5011,-1.8200,
1.415494,1.2513,-0.1527,-0.4361,8.4202,-2.3407,-5.5982,1.5350,-0.5011,-1.8200,
1.417510,1.2559,-0.1549,-0.4285,8.4202,-2.3407,-5.5982,1.5350,-0.5011,-1.8200,
1.419970,1.2601,-0.1598,-0.4204,8.4202,-2.3407,-5.5982,1.5350,-0.5011,-1.8200,
1.422528,1.2640,-0.1622,-0.4129,8.4202,-2.3407,-5.5982,1.5350,-0.5011,-1.8200,
1.424826,1.2637,-0.1673,-0.4043,8.4202,-2.3407,-5.5982,1.5350,-0.5011,-1.8200,
1.427797,1.2633,-0.1730,-0.3945,8.4202,-2.3407,-5.5982,1.5350,-0.5011,-1.8200,
1.429819,1.2598,-0.1791,-0.3860,8.4202,-2.3407,-5.5982,1.5350,-0.5011,-1.8200,
1.432090,1.2579,-0.1820,-0.3779,8.4202,-2.3407,-5.5982,1.5350,-0.5011,-1.8200,
1.435513,1.2540,-0.1842,-0.3679,8.4202,-2.3407,-5.5982,1.5350,-0.5011,-1.8200,
1.437540,1.2550,-0.1901,-0.3576,8.4202,-2.3407,-5.5982,1.5350,-0.5011,-1.8200,
1.439812,1.2554,-0.1949,-0.3452,8.4202,-2.3407,-5.5982,1.5350,-0.5011,-1.8200,
1.441816,1.2550,-0.2006,-0.3332,8.4202,-2.3407,-5.5982,1.5350,-0.5011,-1.8200,
1.445161,1.2508,-0.2064,-0.3183,8.4202,-2.3407,-5.5982,1.5350,-0.5011,-1.8200,
1.446978,1.2457,-0.2143,-0.3015,8.4202,-2.3407,-5.5982,1.5350,-0.5011,-1.8200,
1.449083,1.2386,-0.2238,-0.2827,8.4202,-2.3407,-5.5982,1.5350,-0.5011,-1.8200,
1.452256,1.2325,-0.2309,-0.2646,8.4202,-2.3407,-5.5982,1.5350,-0.5011,-1.8200,
1.454223,1.2224,-0.2370,-0.2440,8.4202,-2.3407,-5.5982,1.5350,-0.5011,-1.8200,
1.456754,1.2080,-0.2416,-0.2230,8.4202,-2.3407,-5.5982,1.5350,-0.5011,-1.8200,
1.457161,1.2080,-0.2416,-0.2230,8.4202,-2.3407,-5.5982,0.3835,-0.8373,-2.0536,
1.459014,1.1902,-0.2455,-0.2050,8.4202,-2.3407,-5.5982,0.3835,-0.8373,-2.0536,
1.461786,1.1643,-0.2484,-0.1896,8.4202,-2.3407,-5.5982,0.3835,-0.8373,-2.0536,
1.464090,1.1331,-0.2506,-0.1756,8.4202,-2.3407,-5.5982,0.3835,-0.8373,-2.0536,
1.464461,1.1331,-0.2506,-0.1756,4.5437,-4.0229,-6.4139,0.3835,-0.8373,-2.0536,
1.466374,1.1010,-0.2497,-0.1627,4.5437,-4.0229,-6.4139,0.3835,-0.8373,-2.0536,
1.468749,1.0676,-0.2462,-0.1517,4.5437,-4.0229,-6.4139,0.3835,-0.8373,-2.0536,
1.471191,1.0358,-0.2462,-0.1419,4.5437,-4.0229,-6.4139,0.3835,-0.8373,-2.0536,
1.473779,1.0053,-0.2428,-0.1375,4.5437,-4.0229,-6.4139,0.3835,-0.8373,-2.0536,
1.476189,0.9728,-0.2423,-0.1378,4.5437,-4.0229,-6.4139,0.3835,-0.8373,-2.0536,
1.478929,0.9420,-0.2394,-0.1395,4.5437,-4.0229,-6.4139,0.3835,-0.8373,-2.0536,
1.481129,0.9122,-0.2375,-0.1429,4.5437,-4.0229,-6.4139,0.3835,-0.8373,-2.0536,
1.483385,0.8802,-0.2357,-0.1512,4.5437,-4.0229,-6.4139,0.3835,-0.8373,-2.0536,
1.485674,0.8514,-0.2291,-0.1612,4.5437,-4.0229,-6.4139,0.3835,-0.8373,-2.0536,
1.488197,0.8218,-0.2230,-0.1713,4.5437,-4.0229,-6.4139,0.3835,-0.8373,-2.0536,
1.491209,0.7949,-0.2187,-0.1825,4.5437,-4.0229,-6.4139,0.3835,-0.8373,-2.0536,
1.493700,0.7717,-0.2143,-0.1940,4.5437,-4.0229,-6.4139,0.3835,-0.8373,-2.0536,
1.495730,0.7510,-0.2108,-0.2084,4.5437,-4.0229,-6.4139,0.3835,-0.8373,-2.0536,
1.497936,0.7331,-0.2045,-0.2267,4.5437,-4.0229,-6.4139,0.3835,-0.8373,-2.0536,
1.500325,0.7153,-0.1984,-0.2462,4.5437,-4.0229,-6.4139,0.3835,-0.8373,-2.0536,
1.502831,0.7014,-0.1910,-0.2668,4.5437,-4.0229,-6.4139,0.3835,-0.8373,-2.0536,
1.505249,0.6914,-0.1805,-0.2822,4.5437,-4.0229,-6.4139,0.3835,-0.8373,-2.0536,
1.507661,0.6838,-0.1730,-0.2968,4.5437,-4.0229,-6.4139,0.3835,-0.8373,-2.0536,
1.510037,0.6794,-0.1671,-0.3090,4.5437,-4.0229,-6.4139,0.3835,-0.8373,-2.0536,
1.513626,0.6787,-0.1639,-0.3222,4.5437,-4.0229,-6.4139,0.3835,-0.8373,-2.0536,
1.515469,0.6782,-0.1615,-0.3362,4.5437,-4.0229,-6.4139,0.3835,-0.8373,-2.0536,
1.517765,0.6752,-0.1603,-0.3484,4.5437,-4.0229,-6.4139,0.3835,-0.8373,-2.0536,
1.521351,0.6704,-0.1564,-0.3608,4.5437,-4.0229,-6.4139,0.3835,-0.8373,-2.0536,
1.522692,0.6606,-0.1522,-0.3738,4.5437,-4.0229,-6.4139,0.3835,-0.8373,-2.0536,
1.525002,0.6606,-0.1522,-0.3738,4.5437,-4.0229,-6.4139,0.2589,-0.6674,-2.3605,
1.525580,0.6540,-0.1466,-0.3855,4.5437,-4.0229,-6.4139,0.2589,-0.6674,-2.3605,
1.527441,0.6447,-0.1437,-0.3953,4.5437,-4.0229,-6.4139,0.2589,-0.6674,-2.3605,
1.531123,0.6352,-0.1395,-0.4019,4.5437,-4.0229,-6.4139,0.2589,-0.6674,-2.3605,
1.532169,0.6256,-0.1339,-0.4085,4.5437,-4.0229,-6.4139,0.2589,-0.6674,-2.3605,
1.532536,0.6256,-0.1339,-0.4085,1.7966,-5.2076,-4.8783,0.2589,-0.6674,-2.3605,
1.534655,0.6137,-0.1268,-0.4121,1.7966,-5.2076,-4.8783,0.2589,-0.6674,-2.3605,
1.537987,0.6020,-0.1236,-0.4182,1.7966,-5.2076,-4.8783,0.2589,-0.6674,-2.3605,
1.539629,0.5912,-0.1221,-0.4251,1.7966,-5.2076,-4.8783,0.2589,-0.6674,-2.3605,
1.542023,0.5785,-0.1207,-0.4287,1.7966,-5.2076,-4.8783,0.2589,-0.6674,-2.3605,
1.544197,0.5665,-0.1195,-0.4324,1.7966,-5.2076,-4.8783,0.2589,-0.6674,-2.3605,
1.546871,0.5497,-0.1156,-0.4385,1.7966,-5.2076,-4.8783,0.2589,-0.6674,-2.3605,
1.549204,0.5345,-0.1131,-0.4417,1.7966,-5.2076,-4.8783,0.2589,-0.6674,-2.3605,
1.551552,0.5194,-0.1082,-0.4463,1.7966,-5.2076,-4.8783,0.2589,-0.6674,-2.3605,
1.555177,0.5059,-0.1055,-0.4507,1.7966,-5.2076,-4.8783,0.2589,-0.6674,-2.3605,
1.556440,0.4874,-0.1007,-0.4534,1.7966,-5.2076,-4.8783,0.2589,-0.6674,-2.3605,
1.558969,0.4688,-0.0921,-0.4549,1.7966,-5.2076,-4.8783,0.2589,-0.6674,-2.3605,
1.561314,0.4473,-0.0843,-0.4583,1.7966,-5.2076,-4.8783,0.2589,-0.6674,-2.3605,
1.563818,0.4258,-0.0755,-0.4593,1.7966,-5.2076,-4.8783,0.2589,-0.6674,-2.3605,
1.566142,0.4031,-0.0662,-0.4605,1.7966,-5.2076,-4.8783,0.2589,-0.6674,-2.3605,
1.568461,0.3816,-0.0586,-0.4622,1.7966,-5.2076,-4.8783,0.2589,-0.6674,-2.3605,
1.571644,0.3589,-0.0523,-0.4642,1.7966,-5.2076,-4.8783,0.2589,-0.6674,-2.3605,
1.573826,0.3364,-0.0440,-0.4627,1.7966,-5.2076,-4.8783,0.2589,-0.6674,-2.3605,
1.575942,0.3141,-0.0352,-0.4603,1.7966,-5.2076,-4.8783,0.2589,-0.6674,-2.3605,
1.578340,0.2944,-0.0269,-0.4568,1.7966,-5.2076,-4.8783,0.2589,-0.6674,-2.3605,
1.580875,0.2746,-0.0210,-0.4554,1.7966,-5.2076,-4.8783,0.2589,-0.6674,-2.3605,
1.583289,0.2538,-0.0117,-0.4515,1.7966,-5.2076,-4.8783,0.2589,-0.6674,-2.3605,
1.585642,0.2406,-0.0042,-0.4476,1.7966,-5.2076,-4.8783,0.2589,-0.6674,-2.3605,
1.589297,0.2294,0.0034,-0.4424,1.7966,-5.2076,-4.8783,0.2589,-0.6674,-2.3605,
1.590594,0.2201,0.0105,-0.4353,1.7966,-5.2076,-4.8783,0.2589,-0.6674,-2.3605,
1.593759,0.2135,0.0154,-0.4268,1.7966,-5.2076,-4.8783,0.2589,-0.6674,-2.3605,
1.594087,0.2135,0.0154,-0.4268,1.7966,-5.2076,-4.8783,-0.1213,-0.5187,-1.8893,
1.595826,0.2079,0.0198,-0.4168,1.7966,-5.2076,-4.8783,-0.1213,-0.5187,-1.8893,
1.597887,0.2045,0.0234,-0.4053,1.7966,-5.2076,-4.8783,-0.1213,-0.5187,-1.8893,
1.600333,0.2020,0.0276,-0.3941,1.7966,-5.2076,-4.8783,-0.1213,-0.5187,-1.8893,
1.600745,0.2020,0.0276,-0.3941,-1.9460,-6.5845,-3.1250,-0.1213,-0.5187,-1.8893,
1.602682,0.2003,0.0286,-0.3814,-1.9460,-6.5845,-3.1250,-0.1213,-0.5187,-1.8893,
1.606068,0.2001,0.0354,-0.3691,-1.9460,-6.5845,-3.1250,-0.1213,-0.5187,-1.8893,
1.607659,0.1993,0.0420,-0.3596,-1.9460,-6.5845,-3.1250,-0.1213,-0.5187,-1.8893,
1.610031,0.1976,0.0498,-0.3520,-1.9460,-6.5845,-3.1250,-0.1213,-0.5187,-1.8893,
1.614701,0.1976,0.0540,-0.3445,-1.9460,-6.5845,-3.1250,-0.1213,-0.5187,-1.8893,
1.615118,0.1966,0.0591,-0.3379,-1.9460,-6.5845,-3.1250,-0.1213,-0.5187,-1.8893,
1.617276,0.1966,0.0618,-0.3330,-1.9460,-6.5845,-3.1250,-0.1213,-0.5187,-1.8893,
1.619688,0.1957,0.0635,-0.3288,-1.9460,-6.5845,-3.1250,-0.1213,-0.5187,-1.8893,
1.622951,0.1964,0.0628,-0.3244,-1.9460,-6.5845,-3.1250,-0.1213,-0.5187,-1.8893,
1.624813,0.1969,0.0623,-0.3186,-1.9460,-6.5845,-3.1250,-0.1213,-0.5187,-1.8893,
1.627044,0.1979,0.0594,-0.3117,-1.9460,-6.5845,-3.1250,-0.1213,-0.5187,-1.8893,
1.629470,0.1964,0.0599,-0.3041,-1.9460,-6.5845,-3.1250,-0.1213,-0.5187,-1.8893,
1.632297,0.1993,0.0611,-0.2927,-1.9460,-6.5845,-3.1250,-0.1213,-0.5187,-1.8893,
1.635150,0.2006,0.0601,-0.2809,-1.9460,-6.5845,-3.1250,-0.1213,-0.5187,-1.8893,
1.637077,0.2011,0.0642,-0.2648,-1.9460,-6.5845,-3.1250,-0.1213,-0.5187,-1.8893,
1.639605,0.2013,0.0674,-0.2509,-1.9460,-6.5845,-3.1250,-0.1213,-0.5187,-1.8893,
1.641725,0.1979,0.0733,-0.2377,-1.9460,-6.5845,-3.1250,-0.1213,-0.5187,-1.8893,
1.644014,0.1964,0.0806,-0.2240,-1.9460,-6.5845,-3.1250,-0.1213,-0.5187,-1.8893,
1.648710,0.1913,0.0865,-0.2094,-1.9460,-6.5845,-3.1250,-0.1213,-0.5187,-1.8893,
1.649089,0.1869,0.0948,-0.1925,-1.9460,-6.5845,-3.1250,-0.1213,-0.5187,-1.8893,
1.651668,0.1798,0.1068,-0.1766,-1.9460,-6.5845,-3.1250,-0.1213,-0.5187,-1.8893,
1.653897,0.1756,0.1187,-0.1593,-1.9460,-6.5845,-3.1250,-0.1213,-0.5187,-1.8893,
1.657103,0.1693,0.1295,-0.1392,-1.9460,-6.5845,-3.1250,-0.1213,-0.5187,-1.8893,
1.659306,0.1610,0.1419,-0.1219,-1.9460,-6.5845,-3.1250,-0.1213,-0.5187,-1.8893,
1.661855,0.1505,0.1542,-0.1058,-1.9460,-6.5845,-3.1250,-0.1213,-0.5187,-1.8893,
1.662568,0.1505,0.1542,-0.1058,-1.9460,-6.5845,-3.1250,-0.8838,-0.9022,-1.0772,
1.663698,0.1383,0.1654,-0.0902,-1.9460,-6.5845,-3.1250,-0.8838,-0.9022,-1.0772,
1.666129,0.1282,0.1766,-0.0772,-1.9460,-6.5845,-3.1250,-0.8838,-0.9022,-1.0772,
1.668627,0.1163,0.1866,-0.0616,-1.9460,-6.5845,-3.1250,-0.8838,-0.9022,-1.0772,
1.668984,0.1163,0.1866,-0.0616,-4.9486,-6.0934,-4.5276,-0.8838,-0.9022,-1.0772,
1.671020,0.1041,0.1949,-0.0464,-4.9486,-6.0934,-4.5276,-0.8838,-0.9022,-1.0772,
1.674157,0.0909,0.2020,-0.0306,-4.9486,-6.0934,-4.5276,-0.8838,-0.9022,-1.0772,
1.676336,0.0757,0.2079,-0.0132,-4.9486,-6.0934,-4.5276,-0.8838,-0.9022,-1.0772,
1.678322,0.0601,0.2135,0.0027,-4.9486,-6.0934,-4.5276,-0.8838,-0.9022,-1.0772,
1.682106,0.0472,0.2206,0.0183,-4.9486,-6.0934,-4.5276,-0.8838,-0.9022,-1.0772,
1.683288,0.0323,0.2291,0.0323,-4.9486,-6.0934,-4.5276,-0.8838,-0.9022,-1.0772,
1.685952,0.0200,0.2357,0.0450,-4.9486,-6.0934,-4.5276,-0.8838,-0.9022,-1.0772,
1.687956,0.0093,0.2401,0.0601,-4.9486,-6.0934,-4.5276,-0.8838,-0.9022,-1.0772,
1.691198,0.0002,0.2448,0.0752,-4.9486,-6.0934,-4.5276,-0.8838,-0.9022,-1.0772,
1.694018,-0.0066,0.2480,0.0870,-4.9486,-6.0934,-4.5276,-0.8838,-0.9022,-1.0772,
1.695678,-0.0151,0.2536,0.1002,-4.9486,-6.0934,-4.5276,-0.8838,-0.9022,-1.0772,
1.699092,-0.0193,0.2555,0.1148,-4.9486,-6.0934,-4.5276,-0.8838,-0.9022,-1.0772,
1.700318,-0.0210,0.2565,0.1317,-4.9486,-6.0934,-4.5276,-0.8838,-0.9022,-1.0772,
1.703027,-0.0208,0.2595,0.1503,-4.9486,-6.0934,-4.5276,-0.8838,-0.9022,-1.0772,
1.705077,-0.0193,0.2609,0.1678,-4.9486,-6.0934,-4.5276,-0.8838,-0.9022,-1.0772,
1.708580,-0.0164,0.2614,0.1910,-4.9486,-6.0934,-4.5276,-0.8838,-0.9022,-1.0772,
1.710003,-0.0076,0.2621,0.2191,-4.9486,-6.0934,-4.5276,-0.8838,-0.9022,-1.0772,
1.712207,0.0066,0.2641,0.2494,-4.9486,-6.0934,-4.5276,-0.8838,-0.9022,-1.0772,
1.716400,0.0232,0.2680,0.2785,-4.9486,-6.0934,-4.5276,-0.8838,-0.9022,-1.0772,
1.717466,0.0418,0.2734,0.3088,-4.9486,-6.0934,-4.5276,-0.8838,-0.9022,-1.0772,
1.719679,0.0633,0.2824,0.3371,-4.9486,-6.0934,-4.5276,-0.8838,-0.9022,-1.0772,
1.722011,0.0813,0.2934,0.3659,-4.9486,-6.0934,-4.5276,-0.8838,-0.9022,-1.0772,
1.724671,0.0965,0.3049,0.3933,-4.9486,-6.0934,-4.5276,-0.8838,-0.9022,-1.0772,
1.727128,0.1080,0.3186,0.4216,-4.9486,-6.0934,-4.5276,-0.8838,-0.9022,-1.0772,
1.729481,0.1217,0.3276,0.4500,-4.9486,-6.0934,-4.5276,-0.8838,-0.9022,-1.0772,
1.729786,0.1217,0.3276,0.4500,-4.9486,-6.0934,-4.5276,-1.2772,-0.7800,-0.3326,
1.733327,0.1385,0.3369,0.4751,-4.9486,-6.0934,-4.5276,-1.2772,-0.7800,-0.3326,
1.734690,0.1568,0.3508,0.4969,-4.9486,-6.0934,-4.5276,-1.2772,-0.7800,-0.3326,
1.736858,0.1776,0.3606,0.5167,-4.9486,-6.0934,-4.5276,-1.2772,-0.7800,-0.3326,
1.737355,0.1776,0.3606,0.5167,-6.3433,-5.0306,-2.3906,-1.2772,-0.7800,-0.3326,
1.739220,0.2001,0.3694,0.5313,-6.3433,-5.0306,-2.3906,-1.2772,-0.7800,-0.3326,
1.741822,0.2228,0.3784,0.5458,-6.3433,-5.0306,-2.3906,-1.2772,-0.7800,-0.3326,
1.744107,0.2423,0.3882,0.5590,-6.3433,-5.0306,-2.3906,-1.2772,-0.7800,-0.3326,
1.746375,0.2599,0.4043,0.5680,-6.3433,-5.0306,-2.3906,-1.2772,-0.7800,-0.3326,
1.749557,0.2802,0.4241,0.5758,-6.3433,-5.0306,-2.3906,-1.2772,-0.7800,-0.3326,
1.751608,0.3041,0.4417,0.5819,-6.3433,-5.0306,-2.3906,-1.2772,-0.7800,-0.3326,
1.753939,0.3293,0.4598,0.5858,-6.3433,-5.0306,-2.3906,-1.2772,-0.7800,-0.3326,
1.756427,0.3567,0.4808,0.5890,-6.3433,-5.0306,-2.3906,-1.2772,-0.7800,-0.3326,
1.759011,0.3865,0.4984,0.5902,-6.3433,-5.0306,-2.3906,-1.2772,-0.7800,-0.3326,
1.761418,0.4175,0.5152,0.5900,-6.3433,-5.0306,-2.3906,-1.2772,-0.7800,-0.3326,
1.763504,0.4515,0.5289,0.5892,-6.3433,-5.0306,-2.3906,-1.2772,-0.7800,-0.3326,
1.767039,0.4864,0.5428,0.5883,-6.3433,-5.0306,-2.3906,-1.2772,-0.7800,-0.3326,
1.768667,0.5206,0.5548,0.5885,-6.3433,-5.0306,-2.3906,-1.2772,-0.7800,-0.3326,
1.771522,0.5550,0.5675,0.5907,-6.3433,-5.0306,-2.3906,-1.2772,-0.7800,-0.3326,
1.773887,0.5858,0.5775,0.5936,-6.3433,-5.0306,-2.3906,-1.2772,-0.7800,-0.3326,
1.776195,0.6171,0.5868,0.5958,-6.3433,-5.0306,-2.3906,-1.2772,-0.7800,-0.3326,
1.778576,0.6493,0.5939,0.5975,-6.3433,-5.0306,-2.3906,-1.2772,-0.7800,-0.3326,
1.780673,0.6779,0.5988,0.5988,-6.3433,-5.0306,-2.3906,-1.2772,-0.7800,-0.3326,
1.784112,0.7053,0.6015,0.5980,-6.3433,-5.0306,-2.3906,-1.2772,-0.7800,-0.3326,
1.785572,0.7305,0.6020,0.5980,-6.3433,-5.0306,-2.3906,-1.2772,-0.7800,-0.3326,
1.787895,0.7529,0.6022,0.6017,-6.3433,-5.0306,-2.3906,-1.2772,-0.7800,-0.3326,
1.790245,0.7724,0.6024,0.6064,-6.3433,-5.0306,-2.3906,-1.2772,-0.7800,-0.3326,
1.793869,0.7923,0.6034,0.6120,-6.3433,-5.0306,-2.3906,-1.2772,-0.7800,-0.3326,
1.795390,0.8076,0.6054,0.6176,-6.3433,-5.0306,-2.3906,-1.2772,-0.7800,-0.3326,
1.797802,0.8211,0.6086,0.6195,-6.3433,-5.0306,-2.3906,-1.2772,-0.7800,-0.3326,
1.798437,0.8211,0.6086,0.6195,-6.3433,-5.0306,-2.3906,-0.8489,-0.9453,0.4820,
1.800635,0.8304,0.6112,0.6198,-6.3433,-5.0306,-2.3906,-0.8489,-0.9453,0.4820,
1.802731,0.8370,0.6134,0.6195,-6.3433,-5.0306,-2.3906,-0.8489,-0.9453,0.4820,
1.805119,0.8443,0.6147,0.6203,-6.3433,-5.0306,-2.3906,-0.8489,-0.9453,0.4820,
1.805625,0.8443,0.6147,0.6203,-7.3028,-3.2464,1.8600,-0.8489,-0.9453,0.4820,
1.807502,0.8467,0.6178,0.6186,-7.3028,-3.2464,1.8600,-0.8489,-0.9453,0.4820,
1.810008,0.8511,0.6225,0.6181,-7.3028,-3.2464,1.8600,-0.8489,-0.9453,0.4820,
1.812335,0.8541,0.6269,0.6132,-7.3028,-3.2464,1.8600,-0.8489,-0.9453,0.4820,
1.815240,0.8592,0.6322,0.6056,-7.3028,-3.2464,1.8600,-0.8489,-0.9453,0.4820,
1.818079,0.8655,0.6386,0.5956,-7.3028,-3.2464,1.8600,-0.8489,-0.9453,0.4820,
1.819928,0.8751,0.6459,0.5846,-7.3028,-3.2464,1.8600,-0.8489,-0.9453,0.4820,
1.822414,0.8853,0.6554,0.5707,-7.3028,-3.2464,1.8600,-0.8489,-0.9453,0.4820,
1.824677,0.8971,0.6633,0.5526,-7.3028,-3.2464,1.8600,-0.8489,-0.9453,0.4820,
1.827352,0.9083,0.6723,0.5350,-7.3028,-3.2464,1.8600,-0.8489,-0.9453,0.4820,
1.829828,0.9225,0.6794,0.5169,-7.3028,-3.2464,1.8600,-0.8489,-0.9453,0.4820,
1.831947,0.9369,0.6865,0.4996,-7.3028,-3.2464,1.8600,-0.8489,-0.9453,0.4820,
1.835022,0.9523,0.6906,0.4822,-7.3028,-3.2464,1.8600,-0.8489,-0.9453,0.4820,
1.836972,0.9674,0.6938,0.4629,-7.3028,-3.2464,1.8600,-0.8489,-0.9453,0.4820,
1.839250,0.9786,0.6960,0.4439,-7.3028,-3.2464,1.8600,-0.8489,-0.9453,0.4820,
1.841837,0.9891,0.6982,0.4256,-7.3028,-3.2464,1.8600,-0.8489,-0.9453,0.4820,
1.844111,0.9979,0.6960,0.4075,-7.3028,-3.2464,1.8600,-0.8489,-0.9453,0.4820,
1.846842,1.0041,0.6940,0.3921,-7.3028,-3.2464,1.8600,-0.8489,-0.9453,0.4820,
1.848891,1.0085,0.6906,0.3767,-7.3028,-3.2464,1.8600,-0.8489,-0.9453,0.4820,
1.851968,1.0090,0.6896,0.3608,-7.3028,-3.2464,1.8600,-0.8489,-0.9453,0.4820,
1.854378,1.0085,0.6865,0.3484,-7.3028,-3.2464,1.8600,-0.8489,-0.9453,0.4820,
1.856370,1.0041,0.6813,0.3352,-7.3028,-3.2464,1.8600,-0.8489,-0.9453,0.4820,
1.860084,0.9965,0.6787,0.3217,-7.3028,-3.2464,1.8600,-0.8489,-0.9453,0.4820,
1.861224,0.9894,0.6716,0.3120,-7.3028,-3.2464,1.8600,-0.8489,-0.9453,0.4820,
1.863496,0.9794,0.6664,0.3019,-7.3028,-3.2464,1.8600,-0.8489,-0.9453,0.4820,
1.866011,0.9794,0.6664,0.3019,-7.3028,-3.2464,1.8600,-0.2699,-0.0110,0.2298,
1.866413,0.9677,0.6594,0.2941,-7.3028,-3.2464,1.8600,-0.2699,-0.0110,0.2298,
1.868688,0.9511,0.6564,0.2848,-7.3028,-3.2464,1.8600,-0.2699,-0.0110,0.2298,
1.871207,0.9366,0.6508,0.2758,-7.3028,-3.2464,1.8600,-0.2699,-0.0110,0.2298,
1.873836,0.9227,0.6471,0.2687,-7.3028,-3.2464,1.8600,-0.2699,-0.0110,0.2298,
1.874411,0.9227,0.6471,0.2687,-2.4643,-0.3195,5.6328,-0.2699,-0.0110,0.2298,
1.876823,0.9110,0.6444,0.2626,-2.4643,-0.3195,5.6328,-0.2699,-0.0110,0.2298,
1.878661,0.8998,0.6440,0.2572,-2.4643,-0.3195,5.6328,-0.2699,-0.0110,0.2298,
1.880921,0.8932,0.6440,0.2519,-2.4643,-0.3195,5.6328,-0.2699,-0.0110,0.2298,
1.883164,0.8856,0.6437,0.2448,-2.4643,-0.3195,5.6328,-0.2699,-0.0110,0.2298,
1.885570,0.8780,0.6474,0.2367,-2.4643,-0.3195,5.6328,-0.2699,-0.0110,0.2298,
1.887983,0.8736,0.6501,0.2274,-2.4643,-0.3195,5.6328,-0.2699,-0.0110,0.2298,
1.890547,0.8675,0.6508,0.2194,-2.4643,-0.3195,5.6328,-0.2699,-0.0110,0.2298,
1.893981,0.8663,0.6523,0.2121,-2.4643,-0.3195,5.6328,-0.2699,-0.0110,0.2298,
1.895110,0.8650,0.6515,0.2040,-2.4643,-0.3195,5.6328,-0.2699,-0.0110,0.2298,
1.897558,0.8646,0.6505,0.1954,-2.4643,-0.3195,5.6328,-0.2699,-0.0110,0.2298,
1.899954,0.8692,0.6501,0.1871,-2.4643,-0.3195,5.6328,-0.2699,-0.0110,0.2298,
1.902681,0.8714,0.6523,0.1761,-2.4643,-0.3195,5.6328,-0.2699,-0.0110,0.2298,
1.904955,0.8797,0.6559,0.1627,-2.4643,-0.3195,5.6328,-0.2699,-0.0110,0.2298,
1.907244,0.8888,0.6586,0.1500,-2.4643,-0.3195,5.6328,-0.2699,-0.0110,0.2298,
1.911015,0.9005,0.6599,0.1353,-2.4643,-0.3195,5.6328,-0.2699,-0.0110,0.2298,
1.912684,0.9117,0.6596,0.1197,-2.4643,-0.3195,5.6328,-0.2699,-0.0110,0.2298,
1.915004,0.9222,0.6591,0.1033,-2.4643,-0.3195,5.6328,-0.2699,-0.0110,0.2298,
1.917386,0.9322,0.6591,0.0857,-2.4643,-0.3195,5.6328,-0.2699,-0.0110,0.2298,
1.919606,0.9432,0.6542,0.0655,-2.4643,-0.3195,5.6328,-0.2699,-0.0110,0.2298,
1.921970,0.9486,0.6515,0.0457,-2.4643,-0.3195,5.6328,-0.2699,-0.0110,0.2298,
1.924299,0.9523,0.6501,0.0259,-2.4643,-0.3195,5.6328,-0.2699,-0.0110,0.2298,
1.927817,0.9530,0.6527,0.0081,-2.4643,-0.3195,5.6328,-0.2699,-0.0110,0.2298,
1.929460,0.9528,0.6564,-0.0088,-2.4643,-0.3195,5.6328,-0.2699,-0.0110,0.2298,
1.931619,0.9508,0.6621,-0.0234,-2.4643,-0.3195,5.6328,-0.2699,-0.0110,0.2298,
1.934259,0.9508,0.6621,-0.0234,-2.4643,-0.3195,5.6328,0.1501,0.1190,0.0880,
1.935018,0.9486,0.6674,-0.0359,-2.4643,-0.3195,5.6328,0.1501,0.1190,0.0880,
1.937054,0.9439,0.6718,-0.0430,-2.4643,-0.3195,5.6328,0.1501,0.1190,0.0880,
1.939192,0.9393,0.6743,-0.0481,-2.4643,-0.3195,5.6328,0.1501,0.1190,0.0880,
1.942022,0.9366,0.6735,-0.0503,-2.4643,-0.3195,5.6328,0.1501,0.1190,0.0880,
1.943302,0.9366,0.6735,-0.0503,1.2471,1.0390,3.8939,0.1501,0.1190,0.0880,
1.945129,0.9366,0.6723,-0.0518,1.2471,1.0390,3.8939,0.1501,0.1190,0.0880,
1.947015,0.9374,0.6662,-0.0491,1.2471,1.0390,3.8939,0.1501,0.1190,0.0880,
1.949441,0.9386,0.6589,-0.0445,1.2471,1.0390,3.8939,0.1501,0.1190,0.0880,
1.951311,0.9374,0.6513,-0.0359,1.2471,1.0390,3.8939,0.1501,0.1190,0.0880,
1.953888,0.9366,0.6447,-0.0225,1.2471,1.0390,3.8939,0.1501,0.1190,0.0880,
1.956424,0.9334,0.6420,-0.0078,1.2471,1.0390,3.8939,0.1501,0.1190,0.0880,
1.958615,0.9264,0.6398,0.0085,1.2471,1.0390,3.8939,0.1501,0.1190,0.0880,
1.961240,0.9164,0.6354,0.0261,1.2471,1.0390,3.8939,0.1501,0.1190,0.0880,
1.963600,0.9037,0.6330,0.0423,1.2471,1.0390,3.8939,0.1501,0.1190,0.0880,
1.965688,0.8917,0.6308,0.0599,1.2471,1.0390,3.8939,0.1501,0.1190,0.0880,
1.968352,0.8777,0.6271,0.0745,1.2471,1.0390,3.8939,0.1501,0.1190,0.0880,
1.970925,0.8653,0.6252,0.0855,1.2471,1.0390,3.8939,0.1501,0.1190,0.0880,
1.973606,0.8511,0.6230,0.0946,1.2471,1.0390,3.8939,0.1501,0.1190,0.0880,
1.975687,0.8387,0.6203,0.0999,1.2471,1.0390,3.8939,0.1501,0.1190,0.0880,
1.978334,0.8272,0.6161,0.1051,1.2471,1.0390,3.8939,0.1501,0.1190,0.0880,
1.980495,0.8145,0.6147,0.1077,1.2471,1.0390,3.8939,0.1501,0.1190,0.0880,
1.982845,0.8015,0.6127,0.1092,1.2471,1.0390,3.8939,0.1501,0.1190,0.0880,
1.985288,0.7918,0.6103,0.1087,1.2471,1.0390,3.8939,0.1501,0.1190,0.0880,
1.987902,0.7847,0.6095,0.1053,1.2471,1.0390,3.8939,0.1501,0.1190,0.0880,
1.990248,0.7766,0.6093,0.1014,1.2471,1.0390,3.8939,0.1501,0.1190,0.0880,
1.993741,0.7707,0.6090,0.0970,1.2471,1.0390,3.8939,0.1501,0.1190,0.0880,
1.995926,0.7688,0.6120,0.0904,1.2471,1.0390,3.8939,0.1501,0.1190,0.0880,
1.997752,0.7688,0.6120,0.0826,1.2471,1.0390,3.8939,0.1501,0.1190,0.0880,
1.999828,0.7717,0.6132,0.0740,1.2471,1.0390,3.8939,0.1501,0.1190,0.0880,
2.002869,0.7717,0.6132,0.0740,1.2471,1.0390,3.8939,-0.0623,0.0408,-0.0945,
2.003815,0.7766,0.6129,0.0613,1.2471,1.0390,3.8939,-0.0623,0.0408,-0.0945,
2.005774,0.7798,0.6103,0.0496,1.2471,1.0390,3.8939,-0.0623,0.0408,-0.0945,
2.007416,0.7844,0.6120,0.0374,1.2471,1.0390,3.8939,-0.0623,0.0408,-0.0945,
2.009922,0.7879,0.6137,0.0288,1.2471,1.0390,3.8939,-0.0623,0.0408,-0.0945,
2.010270,0.7879,0.6137,0.0288,0.8640,0.9284,0.7274,-0.0623,0.0408,-0.0945,
2.012603,0.7903,0.6154,0.0198,0.8640,0.9284,0.7274,-0.0623,0.0408,-0.0945,
2.015299,0.7927,0.6195,0.0117,0.8640,0.9284,0.7274,-0.0623,0.0408,-0.0945,
2.017040,0.7935,0.6225,0.0078,0.8640,0.9284,0.7274,-0.0623,0.0408,-0.0945,
2.020962,0.7932,0.6237,0.0020,0.8640,0.9284,0.7274,-0.0623,0.0408,-0.0945,
2.021903,0.7935,0.6234,-0.0037,0.8640,0.9284,0.7274,-0.0623,0.0408,-0.0945,
2.024286,0.7940,0.6193,-0.0063,0.8640,0.9284,0.7274,-0.0623,0.0408,-0.0945,
2.026796,0.7959,0.6161,-0.0068,0.8640,0.9284,0.7274,-0.0623,0.0408,-0.0945,
2.029343,0.7947,0.6129,-0.0059,0.8640,0.9284,0.7274,-0.0623,0.0408,-0.0945,
2.031588,0.7942,0.6076,-0.0044,0.8640,0.9284,0.7274,-0.0623,0.0408,-0.0945,
2.034023,0.7952,0.6010,-0.0007,0.8640,0.9284,0.7274,-0.0623,0.0408,-0.0945,
2.037943,0.7959,0.5958,0.0039,0.8640,0.9284,0.7274,-0.0623,0.0408,-0.0945,
2.038950,0.7979,0.5905,0.0105,0.8640,0.9284,0.7274,-0.0623,0.0408,-0.0945,
2.041312,0.7967,0.5853,0.0151,0.8640,0.9284,0.7274,-0.0623,0.0408,-0.0945,
2.043683,0.7915,0.5812,0.0198,0.8640,0.9284,0.7274,-0.0623,0.0408,-0.0945,
2.046305,0.7886,0.5800,0.0237,0.8640,0.9284,0.7274,-0.0623,0.0408,-0.0945,
2.049305,0.7852,0.5778,0.0283,0.8640,0.9284,0.7274,-0.0623,0.0408,-0.0945,
2.051229,0.7820,0.5768,0.0313,0.8640,0.9284,0.7274,-0.0623,0.0408,-0.0945,
2.054589,0.7759,0.5753,0.0352,0.8640,0.9284,0.7274,-0.0623,0.0408,-0.0945,
2.056032,0.7715,0.5746,0.0423,0.8640,0.9284,0.7274,-0.0623,0.0408,-0.0945,
2.058373,0.7656,0.5753,0.0491,0.8640,0.9284,0.7274,-0.0623,0.0408,-0.0945,
2.060827,0.7583,0.5760,0.0559,0.8640,0.9284,0.7274,-0.0623,0.0408,-0.0945,
2.063525,0.7500,0.5790,0.0647,0.8640,0.9284,0.7274,-0.0623,0.0408,-0.0945,
2.065872,0.7427,0.5846,0.0730,0.8640,0.9284,0.7274,-0.0623,0.0408,-0.0945,
2.068247,0.7373,0.5895,0.0804,0.8640,0.9284,0.7274,-0.0623,0.0408,-0.0945,
2.072047,0.7373,0.5895,0.0804,0.8640,0.9284,0.7274,-0.0572,0.0080,-0.0079,
2.072460,0.7348,0.5927,0.0884,0.8640,0.9284,0.7274,-0.0572,0.0080,-0.0079,
2.074200,0.7336,0.5936,0.0953,0.8640,0.9284,0.7274,-0.0572,0.0080,-0.0079,
2.075537,0.7348,0.5948,0.1019,0.8640,0.9284,0.7274,-0.0572,0.0080,-0.0079,
2.078024,0.7407,0.5936,0.1041,0.8640,0.9284,0.7274,-0.0572,0.0080,-0.0079,
2.078556,0.7407,0.5936,0.1041,0.2805,0.5712,-0.0066,-0.0572,0.0080,-0.0079,
2.080603,0.7480,0.5914,0.1033,0.2805,0.5712,-0.0066,-0.0572,0.0080,-0.0079,
2.082974,0.7551,0.5912,0.1009,0.2805,0.5712,-0.0066,-0.0572,0.0080,-0.0079,
2.085174,0.7627,0.5914,0.0960,0.2805,0.5712,-0.0066,-0.0572,0.0080,-0.0079,
2.088751,0.7690,0.5905,0.0897,0.2805,0.5712,-0.0066,-0.0572,0.0080,-0.0079,
2.090309,0.7788,0.5895,0.0833,0.2805,0.5712,-0.0066,-0.0572,0.0080,-0.0079,
2.093427,0.7891,0.5902,0.0767,0.2805,0.5712,-0.0066,-0.0572,0.0080,-0.0079,
2.095550,0.7947,0.5895,0.0674,0.2805,0.5712,-0.0066,-0.0572,0.0080,-0.0079,
2.097433,0.8006,0.5878,0.0594,0.2805,0.5712,-0.0066,-0.0572,0.0080,-0.0079,
2.099921,0.8042,0.5868,0.0498,0.2805,0.5712,-0.0066,-0.0572,0.0080,-0.0079,
2.102167,0.8069,0.5841,0.0420,0.2805,0.5712,-0.0066,-0.0572,0.0080,-0.0079,
2.105565,0.8084,0.5834,0.0352,0.2805,0.5712,-0.0066,-0.0572,0.0080,-0.0079,
2.107635,0.8111,0.5800,0.0281,0.2805,0.5712,-0.0066,-0.0572,0.0080,-0.0079,
2.110263,0.8096,0.5782,0.0217,0.2805,0.5712,-0.0066,-0.0572,0.0080,-0.0079,
2.112278,0.8052,0.5768,0.0137,0.2805,0.5712,-0.0066,-0.0572,0.0080,-0.0079,
2.115062,0.8013,0.5731,0.0059,0.2805,0.5712,-0.0066,-0.0572,0.0080,-0.0079,
2.117273,0.7945,0.5699,0.0017,0.2805,0.5712,-0.0066,-0.0572,0.0080,-0.0079,
2.119411,0.7908,0.5663,-0.0012,0.2805,0.5712,-0.0066,-0.0572,0.0080,-0.0079,
2.122838,0.7862,0.5619,-0.0012,0.2805,0.5712,-0.0066,-0.0572,0.0080,-0.0079,
2.124572,0.7805,0.5592,-0.0007,0.2805,0.5712,-0.0066,-0.0572,0.0080,-0.0079,
2.127241,0.7727,0.5594,0.0042,0.2805,0.5712,-0.0066,-0.0572,0.0080,-0.0079,
2.129074,0.7656,0.5626,0.0066,0.2805,0.5712,-0.0066,-0.0572,0.0080,-0.0079,
2.131549,0.7600,0.5660,0.0127,0.2805,0.5712,-0.0066,-0.0572,0.0080,-0.0079,
2.134243,0.7585,0.5712,0.0188,0.2805,0.5712,-0.0066,-0.0572,0.0080,-0.0079,
2.136483,0.7563,0.5736,0.0259,0.2805,0.5712,-0.0066,-0.0572,0.0080,-0.0079,
2.139847,0.7563,0.5719,0.0347,0.2805,0.5712,-0.0066,-0.0572,0.0080,-0.0079,
2.140191,0.7563,0.5719,0.0347,0.2805,0.5712,-0.0066,-0.0704,-0.0337,0.0498,
2.141388,0.7607,0.5712,0.0403,0.2805,0.5712,-0.0066,-0.0704,-0.0337,0.0498,
2.143625,0.7678,0.5690,0.0457,0.2805,0.5712,-0.0066,-0.0704,-0.0337,0.0498,
2.146241,0.7757,0.5690,0.0535,0.2805,0.5712,-0.0066,-0.0704,-0.0337,0.0498,
2.146528,0.7757,0.5690,0.0535,-0.3985,0.2647,-0.1933,-0.0704,-0.0337,0.0498,
2.148619,0.7822,0.5670,0.0620,-0.3985,0.2647,-0.1933,-0.0704,-0.0337,0.0498,
2.151467,0.7896,0.5670,0.0706,-0.3985,0.2647,-0.1933,-0.0704,-0.0337,0.0498,
2.153631,0.7945,0.5658,0.0806,-0.3985,0.2647,-0.1933,-0.0704,-0.0337,0.0498,
2.157065,0.7991,0.5619,0.0899,-0.3985,0.2647,-0.1933,-0.0704,-0.0337,0.0498,
2.158807,0.8023,0.5655,0.0980,-0.3985,0.2647,-0.1933,-0.0704,-0.0337,0.0498,
2.160947,0.8062,0.5655,0.1038,-0.3985,0.2647,-0.1933,-0.0704,-0.0337,0.0498,
2.164026,0.8103,0.5653,0.1112,-0.3985,0.2647,-0.1933,-0.0704,-0.0337,0.0498,
2.165641,0.8130,0.5641,0.1151,-0.3985,0.2647,-0.1933,-0.0704,-0.0337,0.0498,
2.168346,0.8142,0.5653,0.1192,-0.3985,0.2647,-0.1933,-0.0704,-0.0337,0.0498,
2.170681,0.8162,0.5648,0.1212,-0.3985,0.2647,-0.1933,-0.0704,-0.0337,0.0498,
2.173638,0.8157,0.5646,0.1214,-0.3985,0.2647,-0.1933,-0.0704,-0.0337,0.0498,
2.175211,0.8169,0.5655,0.1207,-0.3985,0.2647,-0.1933,-0.0704,-0.0337,0.0498,
2.177885,0.8184,0.5665,0.1187,-0.3985,0.2647,-0.1933,-0.0704,-0.0337,0.0498,
2.180895,0.8176,0.5658,0.1165,-0.3985,0.2647,-0.1933,-0.0704,-0.0337,0.0498,
2.183029,0.8164,0.5660,0.1131,-0.3985,0.2647,-0.1933,-0.0704,-0.0337,0.0498,
2.185220,0.8164,0.5665,0.1092,-0.3985,0.2647,-0.1933,-0.0704,-0.0337,0.0498,
2.187985,0.8172,0.5665,0.1058,-0.3985,0.2647,-0.1933,-0.0704,-0.0337,0.0498,
2.190379,0.8164,0.5636,0.0987,-0.3985,0.2647,-0.1933,-0.0704,-0.0337,0.0498,
2.193545,0.8164,0.5626,0.0926,-0.3985,0.2647,-0.1933,-0.0704,-0.0337,0.0498,
2.195106,0.8164,0.5624,0.0867,-0.3985,0.2647,-0.1933,-0.0704,-0.0337,0.0498,
2.197910,0.8169,0.5580,0.0796,-0.3985,0.2647,-0.1933,-0.0704,-0.0337,0.0498,
2.200039,0.8181,0.5543,0.0701,-0.3985,0.2647,-0.1933,-0.0704,-0.0337,0.0498,
2.202517,0.8179,0.5533,0.0623,-0.3985,0.2647,-0.1933,-0.0704,-0.0337,0.0498,
2.204798,0.8133,0.5548,0.0542,-0.3985,0.2647,-0.1933,-0.0704,-0.0337,0.0498,
2.207075,0.8133,0.5548,0.0542,-0.3985,0.2647,-0.1933,-0.0609,-0.0687,0.0739,
2.207453,0.8125,0.5550,0.0469,-0.3985,0.2647,-0.1933,-0.0609,-0.0687,0.0739,
2.210139,0.8089,0.5585,0.0362,-0.3985,0.2647,-0.1933,-0.0609,-0.0687,0.0739,
2.212382,0.8037,0.5621,0.0261,-0.3985,0.2647,-0.1933,-0.0609,-0.0687,0.0739,
2.214560,0.7991,0.5658,0.0183,-0.3985,0.2647,-0.1933,-0.0609,-0.0687,0.0739,
2.215398,0.7991,0.5658,0.0183,-0.3550,0.1096,-0.1420,-0.0609,-0.0687,0.0739,
2.218242,0.7952,0.5692,0.0110,-0.3550,0.1096,-0.1420,-0.0609,-0.0687,0.0739,
2.219476,0.7903,0.5736,0.0046,-0.3550,0.1096,-0.1420,-0.0609,-0.0687,0.0739,
2.222242,0.7866,0.5768,0.0007,-0.3550,0.1096,-0.1420,-0.0609,-0.0687,0.0739,
2.224459,0.7857,0.5790,-0.0046,-0.3550,0.1096,-0.1420,-0.0609,-0.0687,0.0739,
2.227039,0.7830,0.5809,-0.0073,-0.3550,0.1096,-0.1420,-0.0609,-0.0687,0.0739,
2.229201,0.7800,0.5848,-0.0100,-0.3550,0.1096,-0.1420,-0.0609,-0.0687,0.0739,
2.232560,0.7808,0.5902,-0.0129,-0.3550,0.1096,-0.1420,-0.0609,-0.0687,0.0739,
2.234366,0.7786,0.5927,-0.0164,-0.3550,0.1096,-0.1420,-0.0609,-0.0687,0.0739,
2.236591,0.7771,0.5953,-0.0178,-0.3550,0.1096,-0.1420,-0.0609,-0.0687,0.0739,
2.238994,0.7798,0.5978,-0.0183,-0.3550,0.1096,-0.1420,-0.0609,-0.0687,0.0739,
2.241456,0.7808,0.5970,-0.0188,-0.3550,0.1096,-0.1420,-0.0609,-0.0687,0.0739,
2.243602,0.7847,0.5970,-0.0186,-0.3550,0.1096,-0.1420,-0.0609,-0.0687,0.0739,
2.246303,0.7886,0.5970,-0.0186,-0.3550,0.1096,-0.1420,-0.0609,-0.0687,0.0739,
2.249881,0.7923,0.5961,-0.0149,-0.3550,0.1096,-0.1420,-0.0609,-0.0687,0.0739,
2.251979,0.7974,0.5983,-0.0122,-0.3550,0.1096,-0.1420,-0.0609,-0.0687,0.0739,
2.253534,0.8028,0.5992,-0.0093,-0.3550,0.1096,-0.1420,-0.0609,-0.0687,0.0739,
2.255752,0.8079,0.5970,-0.0046,-0.3550,0.1096,-0.1420,-0.0609,-0.0687,0.0739,
2.258231,0.8120,0.5961,0.0000,-0.3550,0.1096,-0.1420,-0.0609,-0.0687,0.0739,
2.261037,0.8155,0.5966,0.0034,-0.3550,0.1096,-0.1420,-0.0609,-0.0687,0.0739,
2.263367,0.8181,0.5951,0.0042,-0.3550,0.1096,-0.1420,-0.0609,-0.0687,0.0739,
2.266363,0.8228,0.5905,0.0063,-0.3550,0.1096,-0.1420,-0.0609,-0.0687,0.0739,
2.268361,0.8235,0.5856,0.0110,-0.3550,0.1096,-0.1420,-0.0609,-0.0687,0.0739,
2.270657,0.8247,0.5826,0.0183,-0.3550,0.1096,-0.1420,-0.0609,-0.0687,0.0739,
2.276492,0.8262,0.5800,0.0251,-0.3550,0.1096,-0.1420,-0.0609,-0.0687,0.0739,
2.277861,0.8262,0.5800,0.0251,-0.3550,0.1096,-0.1420,-0.0423,0.0270,0.0224,
2.278829,0.8274,0.5770,0.0301,-0.3550,0.1096,-0.1420,-0.0423,0.0270,0.0224,
2.279607,0.8279,0.5770,0.0325,-0.3550,0.1096,-0.1420,-0.0423,0.0270,0.0224,
2.280237,0.8304,0.5760,0.0342,-0.3550,0.1096,-0.1420,-0.0423,0.0270,0.0224,
2.283812,0.8318,0.5753,0.0362,-0.3550,0.1096,-0.1420,-0.0423,0.0270,0.0224,
2.284665,0.8318,0.5753,0.0362,-0.0939,0.0100,0.3386,-0.0423,0.0270,0.0224,
2.285690,0.8326,0.5721,0.0396,-0.0939,0.0100,0.3386,-0.0423,0.0270,0.0224,
2.287987,0.8340,0.5682,0.0389,-0.0939,0.0100,0.3386,-0.0423,0.0270,0.0224,
2.290296,0.8306,0.5655,0.0376,-0.0939,0.0100,0.3386,-0.0423,0.0270,0.0224,
2.292434,0.8255,0.5631,0.0364,-0.0939,0.0100,0.3386,-0.0423,0.0270,0.0224,
2.295504,0.8201,0.5624,0.0371,-0.0939,0.0100,0.3386,-0.0423,0.0270,0.0224,
2.297280,0.8152,0.5658,0.0403,-0.0939,0.0100,0.3386,-0.0423,0.0270,0.0224,
2.299741,0.8086,0.5709,0.0430,-0.0939,0.0100,0.3386,-0.0423,0.0270,0.0224,
2.303186,0.8040,0.5753,0.0506,-0.0939,0.0100,0.3386,-0.0423,0.0270,0.0224,
2.304625,0.8045,0.5782,0.0557,-0.0939,0.0100,0.3386,-0.0423,0.0270,0.0224,
2.307078,0.8045,0.5800,0.0608,-0.0939,0.0100,0.3386,-0.0423,0.0270,0.0224,
2.309474,0.8025,0.5819,0.0684,-0.0939,0.0100,0.3386,-0.0423,0.0270,0.0224,
2.312070,0.8040,0.5831,0.0735,-0.0939,0.0100,0.3386,-0.0423,0.0270,0.0224,
2.314573,0.8030,0.5834,0.0765,-0.0939,0.0100,0.3386,-0.0423,0.0270,0.0224,
2.317239,0.8013,0.5843,0.0811,-0.0939,0.0100,0.3386,-0.0423,0.0270,0.0224,
2.319165,0.8010,0.5839,0.0860,-0.0939,0.0100,0.3386,-0.0423,0.0270,0.0224,
2.321457,0.7988,0.5831,0.0919,-0.0939,0.0100,0.3386,-0.0423,0.0270,0.0224,
2.323966,0.7976,0.5822,0.0970,-0.0939,0.0100,0.3386,-0.0423,0.0270,0.0224,
2.326561,0.7986,0.5831,0.1007,-0.0939,0.0100,0.3386,-0.0423,0.0270,0.0224,
2.328877,0.7998,0.5819,0.1033,-0.0939,0.0100,0.3386,-0.0423,0.0270,0.0224,
2.331206,0.8023,0.5822,0.1051,-0.0939,0.0100,0.3386,-0.0423,0.0270,0.0224,
2.334638,0.8032,0.5807,0.1041,-0.0939,0.0100,0.3386,-0.0423,0.0270,0.0224,
2.336476,0.8057,0.5780,0.1036,-0.0939,0.0100,0.3386,-0.0423,0.0270,0.0224,
2.339269,0.8072,0.5760,0.1021,-0.0939,0.0100,0.3386,-0.0423,0.0270,0.0224,
2.343382,0.8079,0.5731,0.0999,-0.0939,0.0100,0.3386,-0.0423,0.0270,0.0224,
2.343755,0.8079,0.5731,0.0999,-0.0939,0.0100,0.3386,-0.1016,0.0242,0.0295,
2.344178,0.8089,0.5707,0.0975,-0.0939,0.0100,0.3386,-0.1016,0.0242,0.0295,
2.346311,0.8108,0.5719,0.0941,-0.0939,0.0100,0.3386,-0.1016,0.0242,0.0295,
2.348490,0.8135,0.5707,0.0916,-0.0939,0.0100,0.3386,-0.1016,0.0242,0.0295,
2.352093,0.8140,0.5736,0.0877,-0.0939,0.0100,0.3386,-0.1016,0.0242,0.0295,
2.352773,0.8140,0.5736,0.0877,-0.1793,0.2598,-0.5230,-0.1016,0.0242,0.0295,
2.353767,0.8115,0.5780,0.0813,-0.1793,0.2598,-0.5230,-0.1016,0.0242,0.0295,
2.355714,0.8115,0.5802,0.0728,-0.1793,0.2598,-0.5230,-0.1016,0.0242,0.0295,
2.359651,0.8123,0.5831,0.0650,-0.1793,0.2598,-0.5230,-0.1016,0.0242,0.0295,
2.360679,0.8130,0.5856,0.0574,-0.1793,0.2598,-0.5230,-0.1016,0.0242,0.0295,
2.363004,0.8145,0.5865,0.0472,-0.1793,0.2598,-0.5230,-0.1016,0.0242,0.0295,
2.365326,0.8179,0.5863,0.0393,-0.1793,0.2598,-0.5230,-0.1016,0.0242,0.0295,
2.368615,0.8230,0.5824,0.0330,-0.1793,0.2598,-0.5230,-0.1016,0.0242,0.0295,
2.370501,0.8245,0.5809,0.0281,-0.1793,0.2598,-0.5230,-0.1016,0.0242,0.0295,
2.373922,0.8267,0.5809,0.0227,-0.1793,0.2598,-0.5230,-0.1016,0.0242,0.0295,
2.376984,0.8284,0.5831,0.0183,-0.1793,0.2598,-0.5230,-0.1016,0.0242,0.0295,
2.377787,0.8299,0.5863,0.0134,-0.1793,0.2598,-0.5230,-0.1016,0.0242,0.0295,
2.380837,0.8331,0.5873,0.0127,-0.1793,0.2598,-0.5230,-0.1016,0.0242,0.0295,
2.382657,0.8348,0.5856,0.0098,-0.1793,0.2598,-0.5230,-0.1016,0.0242,0.0295,
2.385128,0.8370,0.5875,0.0090,-0.1793,0.2598,-0.5230,-0.1016,0.0242,0.0295,
2.387370,0.8397,0.5875,0.0098,-0.1793,0.2598,-0.5230,-0.1016,0.0242,0.0295,
2.389856,0.8421,0.5895,0.0115,-0.1793,0.2598,-0.5230,-0.1016,0.0242,0.0295,
2.392435,0.8458,0.5883,0.0146,-0.1793,0.2598,-0.5230,-0.1016,0.0242,0.0295,
2.394967,0.8516,0.5897,0.0178,-0.1793,0.2598,-0.5230,-0.1016,0.0242,0.0295,
2.397201,0.8541,0.5912,0.0217,-0.1793,0.2598,-0.5230,-0.1016,0.0242,0.0295,
2.399657,0.8580,0.5907,0.0276,-0.1793,0.2598,-0.5230,-0.1016,0.0242,0.0295,
2.402395,0.8604,0.5902,0.0337,-0.1793,0.2598,-0.5230,-0.1016,0.0242,0.0295,
2.404618,0.8624,0.5914,0.0408,-0.1793,0.2598,-0.5230,-0.1016,0.0242,0.0295,
2.407077,0.8636,0.5907,0.0491,-0.1793,0.2598,-0.5230,-0.1016,0.0242,0.0295,
2.410651,0.8626,0.5905,0.0574,-0.1793,0.2598,-0.5230,-0.1016,0.0242,0.0295,
2.411878,0.8626,0.5905,0.0574,-0.1793,0.2598,-0.5230,0.0234,-0.0195,0.0680,
2.412483,0.8602,0.5880,0.0660,-0.1793,0.2598,-0.5230,0.0234,-0.0195,0.0680,
2.414277,0.8594,0.5909,0.0723,-0.1793,0.2598,-0.5230,0.0234,-0.0195,0.0680,
2.416595,0.8592,0.5900,0.0808,-0.1793,0.2598,-0.5230,0.0234,-0.0195,0.0680,
2.419450,0.8582,0.5887,0.0852,-0.1793,0.2598,-0.5230,0.0234,-0.0195,0.0680,
2.419883,0.8582,0.5887,0.0852,-0.1146,0.1599,0.1650,0.0234,-0.0195,0.0680,
2.421867,0.8543,0.5890,0.0902,-0.1146,0.1599,0.1650,0.0234,-0.0195,0.0680,
2.423990,0.8504,0.5870,0.0924,-0.1146,0.1599,0.1650,0.0234,-0.0195,0.0680,
2.427447,0.8472,0.5875,0.0926,-0.1146,0.1599,0.1650,0.0234,-0.0195,0.0680,
2.428745,0.8404,0.5883,0.0892,-0.1146,0.1599,0.1650,0.0234,-0.0195,0.0680,
2.431354,0.8345,0.5870,0.0818,-0.1146,0.1599,0.1650,0.0234,-0.0195,0.0680,
2.433912,0.8272,0.5863,0.0733,-0.1146,0.1599,0.1650,0.0234,-0.0195,0.0680,
2.436569,0.8211,0.5870,0.0652,-0.1146,0.1599,0.1650,0.0234,-0.0195,0.0680,
2.438971,0.8164,0.5868,0.0562,-0.1146,0.1599,0.1650,0.0234,-0.0195,0.0680,
2.441123,0.8152,0.5846,0.0476,-0.1146,0.1599,0.1650,0.0234,-0.0195,0.0680,
2.444869,0.8137,0.5829,0.0381,-0.1146,0.1599,0.1650,0.0234,-0.0195,0.0680,
2.446000,0.8101,0.5819,0.0301,-0.1146,0.1599,0.1650,0.0234,-0.0195,0.0680,
2.448377,0.8076,0.5822,0.0208,-0.1146,0.1599,0.1650,0.0234,-0.0195,0.0680,
2.451152,0.8062,0.5836,0.0132,-0.1146,0.1599,0.1650,0.0234,-0.0195,0.0680,
2.453756,0.8042,0.5836,0.0056,-0.1146,0.1599,0.1650,0.0234,-0.0195,0.0680,
2.455736,0.8040,0.5851,-0.0010,-0.1146,0.1599,0.1650,0.0234,-0.0195,0.0680,
2.458070,0.8023,0.5851,-0.0044,-0.1146,0.1599,0.1650,0.0234,-0.0195,0.0680,
2.461369,0.8006,0.5839,-0.0078,-0.1146,0.1599,0.1650,0.0234,-0.0195,0.0680,
2.463050,0.8003,0.5865,-0.0088,-0.1146,0.1599,0.1650,0.0234,-0.0195,0.0680,
2.465268,0.8006,0.5848,-0.0066,-0.1146,0.1599,0.1650,0.0234,-0.0195,0.0680,
2.467802,0.8025,0.5839,-0.0020,-0.1146,0.1599,0.1650,0.0234,-0.0195,0.0680,
2.470223,0.8032,0.5812,0.0056,-0.1146,0.1599,0.1650,0.0234,-0.0195,0.0680,
2.473806,0.8040,0.5804,0.0142,-0.1146,0.1599,0.1650,0.0234,-0.0195,0.0680,
2.475394,0.8047,0.5790,0.0247,-0.1146,0.1599,0.1650,0.0234,-0.0195,0.0680,
2.478221,0.8059,0.5782,0.0349,-0.1146,0.1599,0.1650,0.0234,-0.0195,0.0680,
2.480191,0.8057,0.5773,0.0447,-0.1146,0.1599,0.1650,0.0234,-0.0195,0.0680,
2.480578,0.8057,0.5773,0.0447,-0.1146,0.1599,0.1650,-0.0504,0.0412,-0.0079,
2.482718,0.8081,0.5739,0.0550,-0.1146,0.1599,0.1650,-0.0504,0.0412,-0.0079,
2.485306,0.8081,0.5697,0.0647,-0.1146,0.1599,0.1650,-0.0504,0.0412,-0.0079,
2.487533,0.8089,0.5699,0.0738,-0.1146,0.1599,0.1650,-0.0504,0.0412,-0.0079,
2.487937,0.8089,0.5699,0.0738,0.1513,0.2924,-0.1949,-0.0504,0.0412,-0.0079,
2.489890,0.8079,0.5687,0.0835,0.1513,0.2924,-0.1949,-0.0504,0.0412,-0.0079,
2.492189,0.8084,0.5673,0.0909,0.1513,0.2924,-0.1949,-0.0504,0.0412,-0.0079,
2.495831,0.8072,0.5665,0.0943,0.1513,0.2924,-0.1949,-0.0504,0.0412,-0.0079,
2.497031,0.8062,0.5668,0.0972,0.1513,0.2924,-0.1949,-0.0504,0.0412,-0.0079,
2.499499,0.8037,0.5695,0.0999,0.1513,0.2924,-0.1949,-0.0504,0.0412,-0.0079,
2.502125,0.8023,0.5712,0.1014,0.1513,0.2924,-0.1949,-0.0504,0.0412,-0.0079,
2.504425,0.8003,0.5726,0.1051,0.1513,0.2924,-0.1949,-0.0504,0.0412,-0.0079,
2.506935,0.8003,0.5758,0.1070,0.1513,0.2924,-0.1949,-0.0504,0.0412,-0.0079,
2.509201,0.8015,0.5763,0.1092,0.1513,0.2924,-0.1949,-0.0504,0.0412,-0.0079,
2.512444,0.8052,0.5795,0.1102,0.1513,0.2924,-0.1949,-0.0504,0.0412,-0.0079,
2.514229,0.8074,0.5773,0.1087,0.1513,0.2924,-0.1949,-0.0504,0.0412,-0.0079,
2.516854,0.8086,0.5765,0.1085,0.1513,0.2924,-0.1949,-0.0504,0.0412,-0.0079,
2.519216,0.8111,0.5748,0.1075,0.1513,0.2924,-0.1949,-0.0504,0.0412,-0.0079,
2.521435,0.8123,0.5751,0.1046,0.1513,0.2924,-0.1949,-0.0504,0.0412,-0.0079,
2.523801,0.8130,0.5758,0.1024,0.1513,0.2924,-0.1949,-0.0504,0.0412,-0.0079,
2.526198,0.8147,0.5756,0.0985,0.1513,0.2924,-0.1949,-0.0504,0.0412,-0.0079,
2.528991,0.8164,0.5736,0.0953,0.1513,0.2924,-0.1949,-0.0504,0.0412,-0.0079,
2.531171,0.8179,0.5724,0.0919,0.1513,0.2924,-0.1949,-0.0504,0.0412,-0.0079,
2.533709,0.8213,0.5729,0.0902,0.1513,0.2924,-0.1949,-0.0504,0.0412,-0.0079,
2.537213,0.8235,0.5692,0.0906,0.1513,0.2924,-0.1949,-0.0504,0.0412,-0.0079,
2.538607,0.8252,0.5677,0.0928,0.1513,0.2924,-0.1949,-0.0504,0.0412,-0.0079,
2.540975,0.8294,0.5665,0.0938,0.1513,0.2924,-0.1949,-0.0504,0.0412,-0.0079,
2.543381,0.8311,0.5668,0.0950,0.1513,0.2924,-0.1949,-0.0504,0.0412,-0.0079,
2.546123,0.8321,0.5677,0.0936,0.1513,0.2924,-0.1949,-0.0504,0.0412,-0.0079,
2.556803,0.8321,0.5677,0.0936,0.1513,0.2924,-0.1949,-0.0476,-0.0440,0.0253,
2.557638,0.8331,0.5677,0.0902,0.1513,0.2924,-0.1949,-0.0476,-0.0440,0.0253,
2.557924,0.8309,0.5682,0.0865,0.1513,0.2924,-0.1949,-0.0476,-0.0440,0.0253,
2.558202,0.8296,0.5682,0.0816,0.1513,0.2924,-0.1949,-0.0476,-0.0440,0.0253,
2.558564,0.8296,0.5682,0.0816,-0.0773,0.2245,-0.2091,-0.0476,-0.0440,0.0253,
2.558932,0.8260,0.5680,0.0767,-0.0773,0.2245,-0.2091,-0.0476,-0.0440,0.0253,
2.559214,0.8213,0.5677,0.0713,-0.0773,0.2245,-0.2091,-0.0476,-0.0440,0.0253,
2.560249,0.8216,0.5675,0.0684,-0.0773,0.2245,-0.2091,-0.0476,-0.0440,0.0253,
2.563033,0.8196,0.5668,0.0640,-0.0773,0.2245,-0.2091,-0.0476,-0.0440,0.0253,
2.565174,0.8181,0.5675,0.0591,-0.0773,0.2245,-0.2091,-0.0476,-0.0440,0.0253,
2.567654,0.8162,0.5677,0.0550,-0.0773,0.2245,-0.2091,-0.0476,-0.0440,0.0253,
2.571221,0.8142,0.5697,0.0489,-0.0773,0.2245,-0.2091,-0.0476,-0.0440,0.0253,
2.573972,0.8133,0.5687,0.0411,-0.0773,0.2245,-0.2091,-0.0476,-0.0440,0.0253,
2.574967,0.8157,0.5699,0.0320,-0.0773,0.2245,-0.2091,-0.0476,-0.0440,0.0253,
2.577340,0.8169,0.5717,0.0256,-0.0773,0.2245,-0.2091,-0.0476,-0.0440,0.0253,
2.580083,0.8162,0.5687,0.0203,-0.0773,0.2245,-0.2091,-0.0476,-0.0440,0.0253,
2.582275,0.8201,0.5690,0.0151,-0.0773,0.2245,-0.2091,-0.0476,-0.0440,0.0253,
2.584659,0.8230,0.5695,0.0115,-0.0773,0.2245,-0.2091,-0.0476,-0.0440,0.0253,
2.588124,0.8272,0.5707,0.0112,-0.0773,0.2245,-0.2091,-0.0476,-0.0440,0.0253,
2.589751,0.8296,0.5709,0.0120,-0.0773,0.2245,-0.2091,-0.0476,-0.0440,0.0253,
2.592104,0.8316,0.5709,0.0137,-0.0773,0.2245,-0.2091,-0.0476,-0.0440,0.0253,
2.594589,0.8355,0.5721,0.0159,-0.0773,0.2245,-0.2091,-0.0476,-0.0440,0.0253,
2.597177,0.8365,0.5743,0.0193,-0.0773,0.2245,-0.2091,-0.0476,-0.0440,0.0253,
2.599445,0.8377,0.5743,0.0230,-0.0773,0.2245,-0.2091,-0.0476,-0.0440,0.0253,
2.601779,0.8387,0.5746,0.0281,-0.0773,0.2245,-0.2091,-0.0476,-0.0440,0.0253,
2.604998,0.8372,0.5739,0.0332,-0.0773,0.2245,-0.2091,-0.0476,-0.0440,0.0253,
2.606763,0.8333,0.5731,0.0418,-0.0773,0.2245,-0.2091,-0.0476,-0.0440,0.0253,
2.609184,0.8345,0.5709,0.0486,-0.0773,0.2245,-0.2091,-0.0476,-0.0440,0.0253,
2.611555,0.8336,0.5721,0.0596,-0.0773,0.2245,-0.2091,-0.0476,-0.0440,0.0253,
2.614328,0.8353,0.5726,0.0686,-0.0773,0.2245,-0.2091,-0.0476,-0.0440,0.0253,
2.616580,0.8353,0.5726,0.0686,-0.0773,0.2245,-0.2091,0.0263,0.0304,-0.0084,
2.616933,0.8333,0.5748,0.0782,-0.0773,0.2245,-0.2091,0.0263,0.0304,-0.0084,
2.618779,0.8340,0.5758,0.0863,-0.0773,0.2245,-0.2091,0.0263,0.0304,-0.0084,
2.621554,0.8353,0.5773,0.0933,-0.0773,0.2245,-0.2091,0.0263,0.0304,-0.0084,
2.623844,0.8355,0.5778,0.1024,-0.0773,0.2245,-0.2091,0.0263,0.0304,-0.0084,
2.624196,0.8355,0.5778,0.1024,-0.0702,0.1083,0.3488,0.0263,0.0304,-0.0084,
2.626071,0.8357,0.5765,0.1080,-0.0702,0.1083,0.3488,0.0263,0.0304,-0.0084,
2.628643,0.8375,0.5790,0.1109,-0.0702,0.1083,0.3488,0.0263,0.0304,-0.0084,
2.631188,0.8382,0.5802,0.1124,-0.0702,0.1083,0.3488,0.0263,0.0304,-0.0084,
2.633705,0.8382,0.5800,0.1107,-0.0702,0.1083,0.3488,0.0263,0.0304,-0.0084,
2.636005,0.8409,0.5804,0.1082,-0.0702,0.1083,0.3488,0.0263,0.0304,-0.0084,
2.639434,0.8448,0.5819,0.1058,-0.0702,0.1083,0.3488,0.0263,0.0304,-0.0084,
2.640986,0.8480,0.5826,0.1009,-0.0702,0.1083,0.3488,0.0263,0.0304,-0.0084,
2.643274,0.8533,0.5829,0.0924,-0.0702,0.1083,0.3488,0.0263,0.0304,-0.0084,
2.645572,0.8587,0.5829,0.0848,-0.0702,0.1083,0.3488,0.0263,0.0304,-0.0084,
2.648271,0.8638,0.5834,0.0757,-0.0702,0.1083,0.3488,0.0263,0.0304,-0.0084,
2.650864,0.8682,0.5824,0.0652,-0.0702,0.1083,0.3488,0.0263,0.0304,-0.0084,
2.653671,0.8724,0.5831,0.0537,-0.0702,0.1083,0.3488,0.0263,0.0304,-0.0084,
2.656356,0.8785,0.5834,0.0423,-0.0702,0.1083,0.3488,0.0263,0.0304,-0.0084,
2.657894,0.8819,0.5836,0.0273,-0.0702,0.1083,0.3488,0.0263,0.0304,-0.0084,
2.661324,0.8831,0.5829,0.0144,-0.0702,0.1083,0.3488,0.0263,0.0304,-0.0084,
2.662743,0.8841,0.5819,0.0059,-0.0702,0.1083,0.3488,0.0263,0.0304,-0.0084,
2.665260,0.8841,0.5822,-0.0027,-0.0702,0.1083,0.3488,0.0263,0.0304,-0.0084,
2.667633,0.8848,0.5804,-0.0112,-0.0702,0.1083,0.3488,0.0263,0.0304,-0.0084,
2.669981,0.8843,0.5802,-0.0161,-0.0702,0.1083,0.3488,0.0263,0.0304,-0.0084,
2.673512,0.8812,0.5809,-0.0200,-0.0702,0.1083,0.3488,0.0263,0.0304,-0.0084,
2.674941,0.8743,0.5795,-0.0230,-0.0702,0.1083,0.3488,0.0263,0.0304,-0.0084,
2.677442,0.8719,0.5804,-0.0234,-0.0702,0.1083,0.3488,0.0263,0.0304,-0.0084,
2.680599,0.8650,0.5800,-0.0225,-0.0702,0.1083,0.3488,0.0263,0.0304,-0.0084,
2.682233,0.8582,0.5792,-0.0210,-0.0702,0.1083,0.3488,0.0263,0.0304,-0.0084,
2.684453,0.8582,0.5792,-0.0210,-0.0702,0.1083,0.3488,0.1080,-0.0694,-0.0297,
2.684750,0.8528,0.5824,-0.0186,-0.0702,0.1083,0.3488,0.1080,-0.0694,-0.0297,
2.686837,0.8502,0.5836,-0.0166,-0.0702,0.1083,0.3488,0.1080,-0.0694,-0.0297,
2.689699,0.8460,0.5831,-0.0134,-0.0702,0.1083,0.3488,0.1080,-0.0694,-0.0297,
2.691802,0.8426,0.5831,-0.0110,-0.0702,0.1083,0.3488,0.1080,-0.0694,-0.0297,
2.692111,0.8426,0.5831,-0.0110,0.0467,0.0939,-0.1670,0.1080,-0.0694,-0.0297,
2.694421,0.8409,0.5814,-0.0076,0.0467,0.0939,-0.1670,0.1080,-0.0694,-0.0297,
2.696954,0.8389,0.5829,-0.0034,0.0467,0.0939,-0.1670,0.1080,-0.0694,-0.0297,
2.699219,0.8389,0.5824,0.0012,0.0467,0.0939,-0.1670,0.1080,-0.0694,-0.0297,
2.701605,0.8399,0.5822,0.0039,0.0467,0.0939,-0.1670,0.1080,-0.0694,-0.0297,
2.704139,0.8433,0.5839,0.0061,0.0467,0.0939,-0.1670,0.1080,-0.0694,-0.0297,
2.706453,0.8477,0.5843,0.0100,0.0467,0.0939,-0.1670,0.1080,-0.0694,-0.0297,
2.709126,0.8506,0.5851,0.0132,0.0467,0.0939,-0.1670,0.1080,-0.0694,-0.0297,
2.711306,0.8553,0.5878,0.0127,0.0467,0.0939,-0.1670,0.1080,-0.0694,-0.0297,
2.714307,0.8609,0.5902,0.0098,0.0467,0.0939,-0.1670,0.1080,-0.0694,-0.0297,
2.716330,0.8665,0.5892,0.0044,0.0467,0.0939,-0.1670,0.1080,-0.0694,-0.0297,
2.718876,0.8716,0.5887,0.0000,0.0467,0.0939,-0.1670,0.1080,-0.0694,-0.0297,
2.721159,0.8773,0.5892,-0.0068,0.0467,0.0939,-0.1670,0.1080,-0.0694,-0.0297,
2.723636,0.8841,0.5902,-0.0142,0.0467,0.0939,-0.1670,0.1080,-0.0694,-0.0297,
2.726005,0.8893,0.5905,-0.0232,0.0467,0.0939,-0.1670,0.1080,-0.0694,-0.0297,
2.728286,0.8917,0.5905,-0.0335,0.0467,0.0939,-0.1670,0.1080,-0.0694,-0.0297,
2.731950,0.8951,0.5922,-0.0442,0.0467,0.0939,-0.1670,0.1080,-0.0694,-0.0297,
2.733646,0.8980,0.5927,-0.0569,0.0467,0.0939,-0.1670,0.1080,-0.0694,-0.0297,
2.735713,0.9012,0.5966,-0.0689,0.0467,0.0939,-0.1670,0.1080,-0.0694,-0.0297,
2.738086,0.9054,0.5997,-0.0816,0.0467,0.0939,-0.1670,0.1080,-0.0694,-0.0297,
2.740766,0.9066,0.6032,-0.0943,0.0467,0.0939,-0.1670,0.1080,-0.0694,-0.0297,
2.743065,0.9124,0.6059,-0.1075,0.0467,0.0939,-0.1670,0.1080,-0.0694,-0.0297,
2.745630,0.9173,0.6068,-0.1204,0.0467,0.0939,-0.1670,0.1080,-0.0694,-0.0297,
2.748309,0.9220,0.6071,-0.1317,0.0467,0.0939,-0.1670,0.1080,-0.0694,-0.0297,
2.750652,0.9271,0.6093,-0.1407,0.0467,0.0939,-0.1670,0.1080,-0.0694,-0.0297,
2.753442,0.9271,0.6093,-0.1407,0.0467,0.0939,-0.1670,0.0885,-0.0602,-0.0319,
2.753752,0.9342,0.6110,-0.1471,0.0467,0.0939,-0.1670,0.0885,-0.0602,-0.0319,
2.755229,0.9413,0.6134,-0.1527,0.0467,0.0939,-0.1670,0.0885,-0.0602,-0.0319,
2.757837,0.9467,0.6139,-0.1576,0.0467,0.0939,-0.1670,0.0885,-0.0602,-0.0319,
2.760168,0.9503,0.6137,-0.1608,0.0467,0.0939,-0.1670,0.0885,-0.0602,-0.0319,
2.760384,0.9503,0.6137,-0.1608,0.3486,0.1511,-0.1531,0.0885,-0.0602,-0.0319,
2.762585,0.9520,0.6127,-0.1629,0.3486,0.1511,-0.1531,0.0885,-0.0602,-0.0319,
2.765001,0.9533,0.6110,-0.1649,0.3486,0.1511,-0.1531,0.0885,-0.0602,-0.0319,
2.767394,0.9542,0.6098,-0.1651,0.3486,0.1511,-0.1531,0.0885,-0.0602,-0.0319,
2.769765,0.9547,0.6107,-0.1651,0.3486,0.1511,-0.1531,0.0885,-0.0602,-0.0319,
2.773511,0.9552,0.6098,-0.1620,0.3486,0.1511,-0.1531,0.0885,-0.0602,-0.0319,
2.774895,0.9542,0.6095,-0.1590,0.3486,0.1511,-0.1531,0.0885,-0.0602,-0.0319,
2.777092,0.9540,0.6095,-0.1578,0.3486,0.1511,-0.1531,0.0885,-0.0602,-0.0319,
2.779456,0.9542,0.6105,-0.1546,0.3486,0.1511,-0.1531,0.0885,-0.0602,-0.0319,
2.782186,0.9535,0.6078,-0.1527,0.3486,0.1511,-0.1531,0.0885,-0.0602,-0.0319,
2.784437,0.9533,0.6064,-0.1522,0.3486,0.1511,-0.1531,0.0885,-0.0602,-0.0319,
2.786909,0.9523,0.6059,-0.1520,0.3486,0.1511,-0.1531,0.0885,-0.0602,-0.0319,
2.789319,0.9525,0.6054,-0.1520,0.3486,0.1511,-0.1531,0.0885,-0.0602,-0.0319,
2.791843,0.9525,0.6061,-0.1542,0.3486,0.1511,-0.1531,0.0885,-0.0602,-0.0319,
2.794192,0.9520,0.6073,-0.1559,0.3486,0.1511,-0.1531,0.0885,-0.0602,-0.0319,
2.796725,0.9491,0.6090,-0.1590,0.3486,0.1511,-0.1531,0.0885,-0.0602,-0.0319,
2.799175,0.9493,0.6122,-0.1634,0.3486,0.1511,-0.1531,0.0885,-0.0602,-0.0319,
2.801467,0.9530,0.6134,-0.1700,0.3486,0.1511,-0.1531,0.0885,-0.0602,-0.0319,
2.803805,0.9528,0.6149,-0.1778,0.3486,0.1511,-0.1531,0.0885,-0.0602,-0.0319,
2.806531,0.9547,0.6166,-0.1844,0.3486,0.1511,-0.1531,0.0885,-0.0602,-0.0319,
2.808954,0.9574,0.6178,-0.1913,0.3486,0.1511,-0.1531,0.0885,-0.0602,-0.0319,
2.811180,0.9594,0.6186,-0.2013,0.3486,0.1511,-0.1531,0.0885,-0.0602,-0.0319,
2.813683,0.9625,0.6203,-0.2125,0.3486,0.1511,-0.1531,0.0885,-0.0602,-0.0319,
2.816131,0.9652,0.6208,-0.2279,0.3486,0.1511,-0.1531,0.0885,-0.0602,-0.0319,
2.818586,0.9696,0.6215,-0.2414,0.3486,0.1511,-0.1531,0.0885,-0.0602,-0.0319,
2.820964,0.9723,0.6217,-0.2565,0.3486,0.1511,-0.1531,0.0885,-0.0602,-0.0319,
2.821204,0.9723,0.6217,-0.2565,0.3486,0.1511,-0.1531,-0.0367,-0.0866,-0.1860,
2.823578,0.9713,0.6225,-0.2700,0.3486,0.1511,-0.1531,-0.0367,-0.0866,-0.1860,
2.826022,0.9728,0.6237,-0.2844,0.3486,0.1511,-0.1531,-0.0367,-0.0866,-0.1860,
2.828477,0.9703,0.6205,-0.2983,0.3486,0.1511,-0.1531,-0.0367,-0.0866,-0.1860,
2.828952,0.9703,0.6205,-0.2983,0.6019,0.2527,-0.9242,-0.0367,-0.0866,-0.1860,
2.830746,0.9689,0.6178,-0.3115,0.6019,0.2527,-0.9242,-0.0367,-0.0866,-0.1860,
2.833478,0.9645,0.6151,-0.3257,0.6019,0.2527,-0.9242,-0.0367,-0.0866,-0.1860,
2.835585,0.9594,0.6134,-0.3384,0.6019,0.2527,-0.9242,-0.0367,-0.0866,-0.1860,
2.837896,0.9530,0.6117,-0.3496,0.6019,0.2527,-0.9242,-0.0367,-0.0866,-0.1860,
2.841637,0.9476,0.6093,-0.3608,0.6019,0.2527,-0.9242,-0.0367,-0.0866,-0.1860,
2.843282,0.9417,0.6061,-0.3698,0.6019,0.2527,-0.9242,-0.0367,-0.0866,-0.1860,
2.845353,0.9312,0.6024,-0.3806,0.6019,0.2527,-0.9242,-0.0367,-0.0866,-0.1860,
2.847764,0.9225,0.5990,-0.3901,0.6019,0.2527,-0.9242,-0.0367,-0.0866,-0.1860,
2.850405,0.9137,0.5966,-0.3977,0.6019,0.2527,-0.9242,-0.0367,-0.0866,-0.1860,
2.853708,0.9032,0.5919,-0.4036,0.6019,0.2527,-0.9242,-0.0367,-0.0866,-0.1860,
2.855165,0.8924,0.5897,-0.4089,0.6019,0.2527,-0.9242,-0.0367,-0.0866,-0.1860,
2.858529,0.8817,0.5880,-0.4148,0.6019,0.2527,-0.9242,-0.0367,-0.0866,-0.1860,
2.860508,0.8712,0.5841,-0.4182,0.6019,0.2527,-0.9242,-0.0367,-0.0866,-0.1860,
2.862503,0.8631,0.5804,-0.4192,0.6019,0.2527,-0.9242,-0.0367,-0.0866,-0.1860,
2.864831,0.8565,0.5765,-0.4209,0.6019,0.2527,-0.9242,-0.0367,-0.0866,-0.1860,
2.867335,0.8477,0.5704,-0.4234,0.6019,0.2527,-0.9242,-0.0367,-0.0866,-0.1860,
2.869668,0.8414,0.5597,-0.4263,0.6019,0.2527,-0.9242,-0.0367,-0.0866,-0.1860,
2.872135,0.8343,0.5519,-0.4270,0.6019,0.2527,-0.9242,-0.0367,-0.0866,-0.1860,
2.875764,0.8269,0.5475,-0.4273,0.6019,0.2527,-0.9242,-0.0367,-0.0866,-0.1860,
2.877211,0.8194,0.5433,-0.4287,0.6019,0.2527,-0.9242,-0.0367,-0.0866,-0.1860,
2.879412,0.8086,0.5411,-0.4331,0.6019,0.2527,-0.9242,-0.0367,-0.0866,-0.1860,
2.881847,0.7998,0.5372,-0.4336,0.6019,0.2527,-0.9242,-0.0367,-0.0866,-0.1860,
2.884496,0.7910,0.5326,-0.4361,0.6019,0.2527,-0.9242,-0.0367,-0.0866,-0.1860,
2.886836,0.7803,0.5277,-0.4380,0.6019,0.2527,-0.9242,-0.0367,-0.0866,-0.1860,
2.889340,0.7705,0.5225,-0.4400,0.6019,0.2527,-0.9242,-0.0367,-0.0866,-0.1860,
2.889650,0.7705,0.5225,-0.4400,0.6019,0.2527,-0.9242,-0.2668,-0.1274,-0.4035,
2.892601,0.7615,0.5174,-0.4400,0.6019,0.2527,-0.9242,-0.2668,-0.1274,-0.4035,
2.894662,0.7536,0.5120,-0.4410,0.6019,0.2527,-0.9242,-0.2668,-0.1274,-0.4035,
2.896472,0.7461,0.5062,-0.4397,0.6019,0.2527,-0.9242,-0.2668,-0.1274,-0.4035,
2.896727,0.7461,0.5062,-0.4397,1.3325,0.3072,-2.1532,-0.2668,-0.1274,-0.4035,
2.898884,0.7385,0.5013,-0.4373,1.3325,0.3072,-2.1532,-0.2668,-0.1274,-0.4035,
2.901387,0.7305,0.4972,-0.4339,1.3325,0.3072,-2.1532,-0.2668,-0.1274,-0.4035,
2.903788,0.7200,0.4937,-0.4300,1.3325,0.3072,-2.1532,-0.2668,-0.1274,-0.4035,
2.906182,0.7141,0.4908,-0.4251,1.3325,0.3072,-2.1532,-0.2668,-0.1274,-0.4035,
2.908992,0.7053,0.4856,-0.4194,1.3325,0.3072,-2.1532,-0.2668,-0.1274,-0.4035,
2.911215,0.6975,0.4820,-0.4133,1.3325,0.3072,-2.1532,-0.2668,-0.1274,-0.4035,
2.913583,0.6914,0.4781,-0.4060,1.3325,0.3072,-2.1532,-0.2668,-0.1274,-0.4035,
2.915940,0.6853,0.4715,-0.4016,1.3325,0.3072,-2.1532,-0.2668,-0.1274,-0.4035,
2.918755,0.6823,0.4664,-0.3958,1.3325,0.3072,-2.1532,-0.2668,-0.1274,-0.4035,
2.920977,0.6801,0.4595,-0.3899,1.3325,0.3072,-2.1532,-0.2668,-0.1274,-0.4035,
2.923357,0.6772,0.4515,-0.3826,1.3325,0.3072,-2.1532,-0.2668,-0.1274,-0.4035,
2.926127,0.6765,0.4444,-0.3745,1.3325,0.3072,-2.1532,-0.2668,-0.1274,-0.4035,
2.928392,0.6728,0.4373,-0.3681,1.3325,0.3072,-2.1532,-0.2668,-0.1274,-0.4035,
2.930695,0.6682,0.4319,-0.3596,1.3325,0.3072,-2.1532,-0.2668,-0.1274,-0.4035,
2.933608,0.6623,0.4270,-0.3535,1.3325,0.3072,-2.1532,-0.2668,-0.1274,-0.4035,
2.935589,0.6549,0.4202,-0.3481,1.3325,0.3072,-2.1532,-0.2668,-0.1274,-0.4035,
2.937950,0.6466,0.4168,-0.3425,1.3325,0.3072,-2.1532,-0.2668,-0.1274,-0.4035,
2.940319,0.6322,0.4129,-0.3362,1.3325,0.3072,-2.1532,-0.2668,-0.1274,-0.4035,
2.943391,0.6208,0.4102,-0.3276,1.3325,0.3072,-2.1532,-0.2668,-0.1274,-0.4035,
2.945546,0.6093,0.4058,-0.3222,1.3325,0.3072,-2.1532,-0.2668,-0.1274,-0.4035,
2.947694,0.5983,0.4019,-0.3156,1.3325,0.3072,-2.1532,-0.2668,-0.1274,-0.4035,
2.950127,0.5880,0.3982,-0.3112,1.3325,0.3072,-2.1532,-0.2668,-0.1274,-0.4035,
2.953920,0.5770,0.3941,-0.3056,1.3325,0.3072,-2.1532,-0.2668,-0.1274,-0.4035,
2.955099,0.5670,0.3882,-0.3012,1.3325,0.3072,-2.1532,-0.2668,-0.1274,-0.4035,
2.957702,0.5572,0.3836,-0.2968,1.3325,0.3072,-2.1532,-0.2668,-0.1274,-0.4035,
2.958269,0.5572,0.3836,-0.2968,1.3325,0.3072,-2.1532,-0.8250,-0.3405,-0.3406,
2.960205,0.5458,0.3784,-0.2934,1.3325,0.3072,-2.1532,-0.8250,-0.3405,-0.3406,
2.962328,0.5350,0.3738,-0.2917,1.3325,0.3072,-2.1532,-0.8250,-0.3405,-0.3406,
2.964771,0.5250,0.3718,-0.2897,1.3325,0.3072,-2.1532,-0.8250,-0.3405,-0.3406,
2.965334,0.5250,0.3718,-0.2897,0.5523,-0.3325,-4.2472,-0.8250,-0.3405,-0.3406,
2.967181,0.5167,0.3681,-0.2885,0.5523,-0.3325,-4.2472,-0.8250,-0.3405,-0.3406,
2.969891,0.5069,0.3642,-0.2861,0.5523,-0.3325,-4.2472,-0.8250,-0.3405,-0.3406,
2.971987,0.4969,0.3647,-0.2817,0.5523,-0.3325,-4.2472,-0.8250,-0.3405,-0.3406,
2.974584,0.4856,0.3637,-0.2761,0.5523,-0.3325,-4.2472,-0.8250,-0.3405,-0.3406,
2.977408,0.4739,0.3633,-0.2692,0.5523,-0.3325,-4.2472,-0.8250,-0.3405,-0.3406,
2.979617,0.4624,0.3598,-0.2634,0.5523,-0.3325,-4.2472,-0.8250,-0.3405,-0.3406,
2.981844,0.4505,0.3559,-0.2553,0.5523,-0.3325,-4.2472,-0.8250,-0.3405,-0.3406,
2.984534,0.4422,0.3515,-0.2467,0.5523,-0.3325,-4.2472,-0.8250,-0.3405,-0.3406,
2.986909,0.4302,0.3454,-0.2370,0.5523,-0.3325,-4.2472,-0.8250,-0.3405,-0.3406,
2.989171,0.4175,0.3410,-0.2284,0.5523,-0.3325,-4.2472,-0.8250,-0.3405,-0.3406,
2.991574,0.4070,0.3364,-0.2211,0.5523,-0.3325,-4.2472,-0.8250,-0.3405,-0.3406,
2.994147,0.3967,0.3335,-0.2140,0.5523,-0.3325,-4.2472,-0.8250,-0.3405,-0.3406,
2.996566,0.3862,0.3308,-0.2082,0.5523,-0.3325,-4.2472,-0.8250,-0.3405,-0.3406,
2.998926,0.3779,0.3264,-0.2028,0.5523,-0.3325,-4.2472,-0.8250,-0.3405,-0.3406,
3.002714,0.3726,0.3178,-0.1966,0.5523,-0.3325,-4.2472,-0.8250,-0.3405,-0.3406,
3.003916,0.3679,0.3139,-0.1888,0.5523,-0.3325,-4.2472,-0.8250,-0.3405,-0.3406,
3.006417,0.3637,0.3071,-0.1835,0.5523,-0.3325,-4.2472,-0.8250,-0.3405,-0.3406,
3.008555,0.3618,0.3022,-0.1793,0.5523,-0.3325,-4.2472,-0.8250,-0.3405,-0.3406,
3.011391,0.3630,0.2975,-0.1727,0.5523,-0.3325,-4.2472,-0.8250,-0.3405,-0.3406,
3.013707,0.3662,0.2924,-0.1649,0.5523,-0.3325,-4.2472,-0.8250,-0.3405,-0.3406,
3.015943,0.3652,0.2892,-0.1590,0.5523,-0.3325,-4.2472,-0.8250,-0.3405,-0.3406,
3.020098,0.3640,0.2878,-0.1537,0.5523,-0.3325,-4.2472,-0.8250,-0.3405,-0.3406,
3.020977,0.3684,0.2873,-0.1485,0.5523,-0.3325,-4.2472,-0.8250,-0.3405,-0.3406,
3.023199,0.3679,0.2883,-0.1424,0.5523,-0.3325,-4.2472,-0.8250,-0.3405,-0.3406,
3.025607,0.3679,0.2883,-0.1424,0.5523,-0.3325,-4.2472,-1.0944,-0.4920,-0.0177,
3.025998,0.3694,0.2875,-0.1365,0.5523,-0.3325,-4.2472,-1.0944,-0.4920,-0.0177,
3.028171,0.3716,0.2853,-0.1285,0.5523,-0.3325,-4.2472,-1.0944,-0.4920,-0.0177,
3.030575,0.3738,0.2834,-0.1177,0.5523,-0.3325,-4.2472,-1.0944,-0.4920,-0.0177,
3.033485,0.3767,0.2797,-0.1068,0.5523,-0.3325,-4.2472,-1.0944,-0.4920,-0.0177,
3.033766,0.3767,0.2797,-0.1068,-1.4260,-1.7602,-3.8765,-1.0944,-0.4920,-0.0177,
3.036586,0.3809,0.2773,-0.0946,-1.4260,-1.7602,-3.8765,-1.0944,-0.4920,-0.0177,
3.038032,0.3848,0.2739,-0.0828,-1.4260,-1.7602,-3.8765,-1.0944,-0.4920,-0.0177,
3.040234,0.3894,0.2673,-0.0696,-1.4260,-1.7602,-3.8765,-1.0944,-0.4920,-0.0177,
3.042848,0.3928,0.2619,-0.0545,-1.4260,-1.7602,-3.8765,-1.0944,-0.4920,-0.0177,
3.045309,0.3931,0.2563,-0.0386,-1.4260,-1.7602,-3.8765,-1.0944,-0.4920,-0.0177,
3.047568,0.3938,0.2536,-0.0208,-1.4260,-1.7602,-3.8765,-1.0944,-0.4920,-0.0177,
3.050069,0.3923,0.2475,-0.0039,-1.4260,-1.7602,-3.8765,-1.0944,-0.4920,-0.0177,
3.053579,0.3894,0.2414,0.0125,-1.4260,-1.7602,-3.8765,-1.0944,-0.4920,-0.0177,
3.054956,0.3858,0.2372,0.0278,-1.4260,-1.7602,-3.8765,-1.0944,-0.4920,-0.0177,
3.057262,0.3811,0.2323,0.0452,-1.4260,-1.7602,-3.8765,-1.0944,-0.4920,-0.0177,
3.059731,0.3743,0.2272,0.0559,-1.4260,-1.7602,-3.8765,-1.0944,-0.4920,-0.0177,
3.062375,0.3669,0.2191,0.0667,-1.4260,-1.7602,-3.8765,-1.0944,-0.4920,-0.0177,
3.064630,0.3579,0.2103,0.0738,-1.4260,-1.7602,-3.8765,-1.0944,-0.4920,-0.0177,
3.067047,0.3479,0.2006,0.0818,-1.4260,-1.7602,-3.8765,-1.0944,-0.4920,-0.0177,
3.070110,0.3396,0.1922,0.0875,-1.4260,-1.7602,-3.8765,-1.0944,-0.4920,-0.0177,
3.072150,0.3291,0.1876,0.0924,-1.4260,-1.7602,-3.8765,-1.0944,-0.4920,-0.0177,
3.074672,0.3137,0.1871,0.0987,-1.4260,-1.7602,-3.8765,-1.0944,-0.4920,-0.0177,
3.076987,0.2983,0.1869,0.0989,-1.4260,-1.7602,-3.8765,-1.0944,-0.4920,-0.0177,
3.079530,0.2829,0.1905,0.1004,-1.4260,-1.7602,-3.8765,-1.0944,-0.4920,-0.0177,
3.081810,0.2651,0.1957,0.1031,-1.4260,-1.7602,-3.8765,-1.0944,-0.4920,-0.0177,
3.084198,0.2487,0.2003,0.1068,-1.4260,-1.7602,-3.8765,-1.0944,-0.4920,-0.0177,
3.087472,0.2321,0.2028,0.1063,-1.4260,-1.7602,-3.8765,-1.0944,-0.4920,-0.0177,
3.089275,0.2145,0.2028,0.1051,-1.4260,-1.7602,-3.8765,-1.0944,-0.4920,-0.0177,
3.091529,0.1984,0.1993,0.1055,-1.4260,-1.7602,-3.8765,-1.0944,-0.4920,-0.0177,
3.093970,0.1984,0.1993,0.1055,-1.4260,-1.7602,-3.8765,-1.1383,-0.6061,0.4332,
3.094901,0.1832,0.1937,0.1063,-1.4260,-1.7602,-3.8765,-1.1383,-0.6061,0.4332,
3.096591,0.1717,0.1886,0.1104,-1.4260,-1.7602,-3.8765,-1.1383,-0.6061,0.4332,
3.098933,0.1588,0.1827,0.1202,-1.4260,-1.7602,-3.8765,-1.1383,-0.6061,0.4332,
3.101356,0.1483,0.1761,0.1344,-1.4260,-1.7602,-3.8765,-1.1383,-0.6061,0.4332,
3.102013,0.1483,0.1761,0.1344,-3.7117,-2.7305,-2.4555,-1.1383,-0.6061,0.4332,
3.104379,0.1419,0.1713,0.1525,-3.7117,-2.7305,-2.4555,-1.1383,-0.6061,0.4332,
3.106246,0.1341,0.1681,0.1715,-3.7117,-2.7305,-2.4555,-1.1383,-0.6061,0.4332,
3.108607,0.1302,0.1629,0.1925,-3.7117,-2.7305,-2.4555,-1.1383,-0.6061,0.4332,
3.111010,0.1290,0.1573,0.2143,-3.7117,-2.7305,-2.4555,-1.1383,-0.6061,0.4332,
3.113648,0.1341,0.1542,0.2375,-3.7117,-2.7305,-2.4555,-1.1383,-0.6061,0.4332,
3.115977,0.1387,0.1500,0.2626,-3.7117,-2.7305,-2.4555,-1.1383,-0.6061,0.4332,
3.118412,0.1525,0.1459,0.2841,-3.7117,-2.7305,-2.4555,-1.1383,-0.6061,0.4332,
3.121094,0.1673,0.1434,0.3039,-3.7117,-2.7305,-2.4555,-1.1383,-0.6061,0.4332,
3.123257,0.1847,0.1378,0.3196,-3.7117,-2.7305,-2.4555,-1.1383,-0.6061,0.4332,
3.125631,0.2055,0.1356,0.3352,-3.7117,-2.7305,-2.4555,-1.1383,-0.6061,0.4332,
3.128377,0.2277,0.1312,0.3518,-3.7117,-2.7305,-2.4555,-1.1383,-0.6061,0.4332,
3.130738,0.2477,0.1297,0.3662,-3.7117,-2.7305,-2.4555,-1.1383,-0.6061,0.4332,
3.133440,0.2682,0.1265,0.3789,-3.7117,-2.7305,-2.4555,-1.1383,-0.6061,0.4332,
3.135341,0.2851,0.1219,0.3892,-3.7117,-2.7305,-2.4555,-1.1383,-0.6061,0.4332,
3.138066,0.3032,0.1190,0.3945,-3.7117,-2.7305,-2.4555,-1.1383,-0.6061,0.4332,
3.140390,0.3181,0.1170,0.3977,-3.7117,-2.7305,-2.4555,-1.1383,-0.6061,0.4332,
3.142628,0.3308,0.1119,0.3989,-3.7117,-2.7305,-2.4555,-1.1383,-0.6061,0.4332,
3.145217,0.3410,0.1072,0.3989,-3.7117,-2.7305,-2.4555,-1.1383,-0.6061,0.4332,
3.147723,0.3503,0.0997,0.3955,-3.7117,-2.7305,-2.4555,-1.1383,-0.6061,0.4332,
3.149984,0.3547,0.0931,0.3858,-3.7117,-2.7305,-2.4555,-1.1383,-0.6061,0.4332,
3.153482,0.3559,0.0872,0.3718,-3.7117,-2.7305,-2.4555,-1.1383,-0.6061,0.4332,
3.155466,0.3528,0.0808,0.3581,-3.7117,-2.7305,-2.4555,-1.1383,-0.6061,0.4332,
3.157543,0.3471,0.0743,0.3457,-3.7117,-2.7305,-2.4555,-1.1383,-0.6061,0.4332,
3.159810,0.3413,0.0655,0.3364,-3.7117,-2.7305,-2.4555,-1.1383,-0.6061,0.4332,
3.162372,0.3320,0.0547,0.3305,-3.7117,-2.7305,-2.4555,-1.1383,-0.6061,0.4332,
3.162811,0.3320,0.0547,0.3305,-3.7117,-2.7305,-2.4555,-0.9521,-0.6535,1.1246,
3.164737,0.3227,0.0442,0.3271,-3.7117,-2.7305,-2.4555,-0.9521,-0.6535,1.1246,
3.167041,0.3090,0.0359,0.3254,-3.7117,-2.7305,-2.4555,-0.9521,-0.6535,1.1246,
3.169533,0.2963,0.0306,0.3271,-3.7117,-2.7305,-2.4555,-0.9521,-0.6535,1.1246,
3.169788,0.2963,0.0306,0.3271,-4.7563,-3.3811,-0.0730,-0.9521,-0.6535,1.1246,
3.171958,0.2817,0.0281,0.3298,-4.7563,-3.3811,-0.0730,-0.9521,-0.6535,1.1246,
3.174403,0.2682,0.0283,0.3379,-4.7563,-3.3811,-0.0730,-0.9521,-0.6535,1.1246,
3.176771,0.2533,0.0306,0.3532,-4.7563,-3.3811,-0.0730,-0.9521,-0.6535,1.1246,
3.179415,0.2411,0.0327,0.3740,-4.7563,-3.3811,-0.0730,-0.9521,-0.6535,1.1246,
3.181768,0.2296,0.0313,0.3997,-4.7563,-3.3811,-0.0730,-0.9521,-0.6535,1.1246,
3.184119,0.2204,0.0330,0.4305,-4.7563,-3.3811,-0.0730,-0.9521,-0.6535,1.1246,
3.186560,0.2152,0.0320,0.4622,-4.7563,-3.3811,-0.0730,-0.9521,-0.6535,1.1246,
3.189075,0.2165,0.0306,0.4952,-4.7563,-3.3811,-0.0730,-0.9521,-0.6535,1.1246,
3.191459,0.2221,0.0261,0.5277,-4.7563,-3.3811,-0.0730,-0.9521,-0.6535,1.1246,
3.193948,0.2291,0.0186,0.5604,-4.7563,-3.3811,-0.0730,-0.9521,-0.6535,1.1246,
3.197525,0.2406,0.0115,0.5934,-4.7563,-3.3811,-0.0730,-0.9521,-0.6535,1.1246,
3.199034,0.2553,0.0039,0.6261,-4.7563,-3.3811,-0.0730,-0.9521,-0.6535,1.1246,
3.201166,0.2763,-0.0054,0.6567,-4.7563,-3.3811,-0.0730,-0.9521,-0.6535,1.1246,
3.203533,0.2997,-0.0168,0.6848,-4.7563,-3.3811,-0.0730,-0.9521,-0.6535,1.1246,
3.206161,0.3249,-0.0249,0.7119,-4.7563,-3.3811,-0.0730,-0.9521,-0.6535,1.1246,
3.219351,0.3550,-0.0318,0.7366,-4.7563,-3.3811,-0.0730,-0.9521,-0.6535,1.1246,
3.220927,0.3826,-0.0359,0.7561,-4.7563,-3.3811,-0.0730,-0.9521,-0.6535,1.1246,
3.221509,0.4087,-0.0398,0.7744,-4.7563,-3.3811,-0.0730,-0.9521,-0.6535,1.1246,
3.221925,0.4322,-0.0411,0.7920,-4.7563,-3.3811,-0.0730,-0.9521,-0.6535,1.1246,
3.222299,0.4534,-0.0379,0.8045,-4.7563,-3.3811,-0.0730,-0.9521,-0.6535,1.1246,
3.222608,0.4754,-0.0357,0.8155,-4.7563,-3.3811,-0.0730,-0.9521,-0.6535,1.1246,
3.223988,0.4962,-0.0323,0.8281,-4.7563,-3.3811,-0.0730,-0.9521,-0.6535,1.1246,
3.225691,0.5169,-0.0273,0.8394,-4.7563,-3.3811,-0.0730,-0.9521,-0.6535,1.1246,
3.227936,0.5404,-0.0256,0.8514,-4.7563,-3.3811,-0.0730,-0.9521,-0.6535,1.1246,
3.231472,0.5404,-0.0256,0.8514,-4.7563,-3.3811,-0.0730,-1.0437,-0.6399,1.8295,
3.232108,0.5651,-0.0230,0.8621,-4.7563,-3.3811,-0.0730,-1.0437,-0.6399,1.8295,
3.233658,0.5883,-0.0220,0.8758,-4.7563,-3.3811,-0.0730,-1.0437,-0.6399,1.8295,
3.235207,0.6120,-0.0217,0.8870,-4.7563,-3.3811,-0.0730,-1.0437,-0.6399,1.8295,
3.237636,0.6320,-0.0225,0.8976,-4.7563,-3.3811,-0.0730,-1.0437,-0.6399,1.8295,
3.237914,0.6320,-0.0225,0.8976,-5.6170,-3.6219,2.5591,-1.0437,-0.6399,1.8295,
3.240213,0.6532,-0.0232,0.9100,-5.6170,-3.6219,2.5591,-1.0437,-0.6399,1.8295,
3.242664,0.6718,-0.0239,0.9215,-5.6170,-3.6219,2.5591,-1.0437,-0.6399,1.8295,
3.245097,0.6899,-0.0271,0.9320,-5.6170,-3.6219,2.5591,-1.0437,-0.6399,1.8295,
3.248155,0.7045,-0.0286,0.9420,-5.6170,-3.6219,2.5591,-1.0437,-0.6399,1.8295,
3.250183,0.7170,-0.0303,0.9518,-5.6170,-3.6219,2.5591,-1.0437,-0.6399,1.8295,
3.253307,0.7261,-0.0347,0.9635,-5.6170,-3.6219,2.5591,-1.0437,-0.6399,1.8295,
3.254854,0.7361,-0.0369,0.9750,-5.6170,-3.6219,2.5591,-1.0437,-0.6399,1.8295,
3.257291,0.7431,-0.0403,0.9879,-5.6170,-3.6219,2.5591,-1.0437,-0.6399,1.8295,
3.259549,0.7512,-0.0423,0.9989,-5.6170,-3.6219,2.5591,-1.0437,-0.6399,1.8295,
3.262495,0.7588,-0.0454,1.0102,-5.6170,-3.6219,2.5591,-1.0437,-0.6399,1.8295,
3.264854,0.7678,-0.0494,1.0185,-5.6170,-3.6219,2.5591,-1.0437,-0.6399,1.8295,
3.267031,0.7732,-0.0511,1.0248,-5.6170,-3.6219,2.5591,-1.0437,-0.6399,1.8295,
3.269368,0.7769,-0.0511,1.0278,-5.6170,-3.6219,2.5591,-1.0437,-0.6399,1.8295,
3.271766,0.7779,-0.0467,1.0300,-5.6170,-3.6219,2.5591,-1.0437,-0.6399,1.8295,
3.274417,0.7788,-0.0442,1.0304,-5.6170,-3.6219,2.5591,-1.0437,-0.6399,1.8295,
3.276887,0.7825,-0.0406,1.0307,-5.6170,-3.6219,2.5591,-1.0437,-0.6399,1.8295,
3.279137,0.7871,-0.0367,1.0297,-5.6170,-3.6219,2.5591,-1.0437,-0.6399,1.8295,
3.282151,0.7947,-0.0389,1.0285,-5.6170,-3.6219,2.5591,-1.0437,-0.6399,1.8295,
3.284192,0.8030,-0.0425,1.0275,-5.6170,-3.6219,2.5591,-1.0437,-0.6399,1.8295,
3.286455,0.8147,-0.0476,1.0268,-5.6170,-3.6219,2.5591,-1.0437,-0.6399,1.8295,
3.288789,0.8294,-0.0523,1.0226,-5.6170,-3.6219,2.5591,-1.0437,-0.6399,1.8295,
3.291455,0.8470,-0.0555,1.0177,-5.6170,-3.6219,2.5591,-1.0437,-0.6399,1.8295,
3.293819,0.8650,-0.0579,1.0102,-5.6170,-3.6219,2.5591,-1.0437,-0.6399,1.8295,
3.296118,0.8802,-0.0584,1.0018,-5.6170,-3.6219,2.5591,-1.0437,-0.6399,1.8295,
3.298953,0.8939,-0.0577,0.9950,-5.6170,-3.6219,2.5591,-1.0437,-0.6399,1.8295,
3.299211,0.8939,-0.0577,0.9950,-5.6170,-3.6219,2.5591,-0.4263,-0.2992,2.2495,
3.301082,0.9068,-0.0594,0.9899,-5.6170,-3.6219,2.5591,-0.4263,-0.2992,2.2495,
3.303447,0.9203,-0.0606,0.9862,-5.6170,-3.6219,2.5591,-0.4263,-0.2992,2.2495,
3.306177,0.9371,-0.0635,0.9838,-5.6170,-3.6219,2.5591,-0.4263,-0.2992,2.2495,
3.306699,0.9371,-0.0635,0.9838,-5.0251,-3.5261,5.6873,-0.4263,-0.2992,2.2495,
3.308539,0.9545,-0.0701,0.9840,-5.0251,-3.5261,5.6873,-0.4263,-0.2992,2.2495,
3.310930,0.9723,-0.0789,0.9850,-5.0251,-3.5261,5.6873,-0.4263,-0.2992,2.2495,
3.313399,0.9913,-0.0872,0.9860,-5.0251,-3.5261,5.6873,-0.4263,-0.2992,2.2495,
3.315804,1.0092,-0.0955,0.9899,-5.0251,-3.5261,5.6873,-0.4263,-0.2992,2.2495,
3.318066,1.0268,-0.1043,0.9957,-5.0251,-3.5261,5.6873,-0.4263,-0.2992,2.2495,
3.320496,1.0412,-0.1109,1.0041,-5.0251,-3.5261,5.6873,-0.4263,-0.2992,2.2495,
3.323106,1.0573,-0.1177,1.0143,-5.0251,-3.5261,5.6873,-0.4263,-0.2992,2.2495,
3.325533,1.0730,-0.1224,1.0258,-5.0251,-3.5261,5.6873,-0.4263,-0.2992,2.2495,
3.327881,1.0896,-0.1287,1.0378,-5.0251,-3.5261,5.6873,-0.4263,-0.2992,2.2495,
3.330322,1.1096,-0.1309,1.0495,-5.0251,-3.5261,5.6873,-0.4263,-0.2992,2.2495,
3.333597,1.1289,-0.1314,1.0603,-5.0251,-3.5261,5.6873,-0.4263,-0.2992,2.2495,
3.335315,1.1506,-0.1334,1.0690,-5.0251,-3.5261,5.6873,-0.4263,-0.2992,2.2495,
3.337692,1.1756,-0.1307,1.0754,-5.0251,-3.5261,5.6873,-0.4263,-0.2992,2.2495,
3.341052,1.2041,-0.1224,1.0808,-5.0251,-3.5261,5.6873,-0.4263,-0.2992,2.2495,
3.342729,1.2369,-0.1143,1.0837,-5.0251,-3.5261,5.6873,-0.4263,-0.2992,2.2495,
3.344908,1.2725,-0.1068,1.0839,-5.0251,-3.5261,5.6873,-0.4263,-0.2992,2.2495,
3.347323,1.3155,-0.0992,1.0766,-5.0251,-3.5261,5.6873,-0.4263,-0.2992,2.2495,
3.349890,1.3595,-0.0928,1.0617,-5.0251,-3.5261,5.6873,-0.4263,-0.2992,2.2495,
3.353217,1.4040,-0.0877,1.0407,-5.0251,-3.5261,5.6873,-0.4263,-0.2992,2.2495,
3.354971,1.4452,-0.0826,1.0165,-5.0251,-3.5261,5.6873,-0.4263,-0.2992,2.2495,
3.357730,1.4817,-0.0757,0.9855,-5.0251,-3.5261,5.6873,-0.4263,-0.2992,2.2495,
3.359723,1.5139,-0.0679,0.9537,-5.0251,-3.5261,5.6873,-0.4263,-0.2992,2.2495,
3.361925,1.5391,-0.0584,0.9244,-5.0251,-3.5261,5.6873,-0.4263,-0.2992,2.2495,
3.364414,1.5596,-0.0479,0.8927,-5.0251,-3.5261,5.6873,-0.4263,-0.2992,2.2495,
3.367112,1.5596,-0.0479,0.8927,-5.0251,-3.5261,5.6873,0.5180,0.0273,2.4742,
3.367710,1.5782,-0.0381,0.8641,-5.0251,-3.5261,5.6873,0.5180,0.0273,2.4742,
3.369268,1.5918,-0.0318,0.8401,-5.0251,-3.5261,5.6873,0.5180,0.0273,2.4742,
3.371694,1.6023,-0.0286,0.8155,-5.0251,-3.5261,5.6873,0.5180,0.0273,2.4742,
3.375238,1.6050,-0.0273,0.7935,-5.0251,-3.5261,5.6873,0.5180,0.0273,2.4742,
3.375645,1.6050,-0.0273,0.7935,-1.2926,-2.4784,8.9685,0.5180,0.0273,2.4742,
3.376786,1.6021,-0.0239,0.7727,-1.2926,-2.4784,8.9685,0.5180,0.0273,2.4742,
3.379022,1.5904,-0.0188,0.7522,-1.2926,-2.4784,8.9685,0.5180,0.0273,2.4742,
3.381470,1.5715,-0.0139,0.7353,-1.2926,-2.4784,8.9685,0.5180,0.0273,2.4742,
3.384069,1.5515,-0.0095,0.7226,-1.2926,-2.4784,8.9685,0.5180,0.0273,2.4742,
3.386384,1.5261,-0.0066,0.7182,-1.2926,-2.4784,8.9685,0.5180,0.0273,2.4742,
3.388756,1.5027,-0.0029,0.7187,-1.2926,-2.4784,8.9685,0.5180,0.0273,2.4742,
3.392026,1.4836,-0.0063,0.7265,-1.2926,-2.4784,8.9685,0.5180,0.0273,2.4742,
3.393861,1.4721,-0.0139,0.7395,-1.2926,-2.4784,8.9685,0.5180,0.0273,2.4742,
3.396061,1.4668,-0.0278,0.7590,-1.2926,-2.4784,8.9685,0.5180,0.0273,2.4742,
3.398587,1.4665,-0.0440,0.7805,-1.2926,-2.4784,8.9685,0.5180,0.0273,2.4742,
3.401128,1.4707,-0.0608,0.8030,-1.2926,-2.4784,8.9685,0.5180,0.0273,2.4742,
3.403330,1.4775,-0.0769,0.8269,-1.2926,-2.4784,8.9685,0.5180,0.0273,2.4742,
3.405745,1.4836,-0.0884,0.8492,-1.2926,-2.4784,8.9685,0.5180,0.0273,2.4742,
3.408832,1.4917,-0.0926,0.8729,-1.2926,-2.4784,8.9685,0.5180,0.0273,2.4742,
3.410899,1.5019,-0.0924,0.8946,-1.2926,-2.4784,8.9685,0.5180,0.0273,2.4742,
3.413590,1.5166,-0.0899,0.9151,-1.2926,-2.4784,8.9685,0.5180,0.0273,2.4742,
3.415663,1.5356,-0.0875,0.9288,-1.2926,-2.4784,8.9685,0.5180,0.0273,2.4742,
3.418159,1.5610,-0.0899,0.9395,-1.2926,-2.4784,8.9685,0.5180,0.0273,2.4742,
3.420569,1.5923,-0.0950,0.9430,-1.2926,-2.4784,8.9685,0.5180,0.0273,2.4742,
3.423052,1.6302,-0.1029,0.9420,-1.2926,-2.4784,8.9685,0.5180,0.0273,2.4742,
3.425955,1.6715,-0.1129,0.9330,-1.2926,-2.4784,8.9685,0.5180,0.0273,2.4742,
3.427970,1.7140,-0.1209,0.9176,-1.2926,-2.4784,8.9685,0.5180,0.0273,2.4742,
3.430203,1.7541,-0.1273,0.8939,-1.2926,-2.4784,8.9685,0.5180,0.0273,2.4742,
3.434290,1.7904,-0.1300,0.8658,-1.2926,-2.4784,8.9685,0.5180,0.0273,2.4742,
3.435230,1.7904,-0.1300,0.8658,-1.2926,-2.4784,8.9685,1.1267,0.4526,2.0836,
3.435861,1.8220,-0.1258,0.8350,-1.2926,-2.4784,8.9685,1.1267,0.4526,2.0836,
3.437650,1.8486,-0.1180,0.8032,-1.2926,-2.4784,8.9685,1.1267,0.4526,2.0836,
3.440135,1.8686,-0.1087,0.7703,-1.2926,-2.4784,8.9685,1.1267,0.4526,2.0836,
3.442904,1.8816,-0.1009,0.7397,-1.2926,-2.4784,8.9685,1.1267,0.4526,2.0836,
3.443397,1.8816,-0.1009,0.7397,3.1217,-1.4067,8.7496,1.1267,0.4526,2.0836,
3.444985,1.8945,-0.0946,0.7094,3.1217,-1.4067,8.7496,1.1267,0.4526,2.0836,
3.447258,1.9065,-0.0931,0.6804,3.1217,-1.4067,8.7496,1.1267,0.4526,2.0836,
3.449839,1.9185,-0.0941,0.6542,3.1217,-1.4067,8.7496,1.1267,0.4526,2.0836,
3.452358,1.9263,-0.0960,0.6298,3.1217,-1.4067,8.7496,1.1267,0.4526,2.0836,
3.454672,1.9309,-0.0948,0.6081,3.1217,-1.4067,8.7496,1.1267,0.4526,2.0836,
3.456982,1.9307,-0.0914,0.5878,3.1217,-1.4067,8.7496,1.1267,0.4526,2.0836,
3.459670,1.9248,-0.0843,0.5704,3.1217,-1.4067,8.7496,1.1267,0.4526,2.0836,
3.461925,1.9145,-0.0772,0.5599,3.1217,-1.4067,8.7496,1.1267,0.4526,2.0836,
3.464346,1.9033,-0.0662,0.5575,3.1217,-1.4067,8.7496,1.1267,0.4526,2.0836,
3.467039,1.8918,-0.0589,0.5624,3.1217,-1.4067,8.7496,1.1267,0.4526,2.0836,
3.469427,1.8862,-0.0564,0.5748,3.1217,-1.4067,8.7496,1.1267,0.4526,2.0836,
3.471750,1.8891,-0.0603,0.5909,3.1217,-1.4067,8.7496,1.1267,0.4526,2.0836,
3.474191,1.8943,-0.0696,0.6098,3.1217,-1.4067,8.7496,1.1267,0.4526,2.0836,
3.476902,1.9043,-0.0826,0.6254,3.1217,-1.4067,8.7496,1.1267,0.4526,2.0836,
3.479185,1.9150,-0.0965,0.6388,3.1217,-1.4067,8.7496,1.1267,0.4526,2.0836,
3.481406,1.9275,-0.1121,0.6503,3.1217,-1.4067,8.7496,1.1267,0.4526,2.0836,
3.484036,1.9407,-0.1226,0.6584,3.1217,-1.4067,8.7496,1.1267,0.4526,2.0836,
3.486628,1.9490,-0.1263,0.6594,3.1217,-1.4067,8.7496,1.1267,0.4526,2.0836,
3.488692,1.9517,-0.1287,0.6576,3.1217,-1.4067,8.7496,1.1267,0.4526,2.0836,
3.491093,1.9556,-0.1270,0.6498,3.1217,-1.4067,8.7496,1.1267,0.4526,2.0836,
3.493648,1.9563,-0.1231,0.6425,3.1217,-1.4067,8.7496,1.1267,0.4526,2.0836,
3.496071,1.9610,-0.1231,0.6281,3.1217,-1.4067,8.7496,1.1267,0.4526,2.0836,
3.498693,1.9697,-0.1275,0.6120,3.1217,-1.4067,8.7496,1.1267,0.4526,2.0836,
3.501991,1.9825,-0.1368,0.5900,3.1217,-1.4067,8.7496,1.1267,0.4526,2.0836,
3.503617,1.9825,-0.1368,0.5900,3.1217,-1.4067,8.7496,1.7267,0.4921,1.4854,
3.503964,1.9983,-0.1471,0.5604,3.1217,-1.4067,8.7496,1.7267,0.4921,1.4854,
3.505706,2.0167,-0.1581,0.5274,3.1217,-1.4067,8.7496,1.7267,0.4921,1.4854,
3.508142,2.0355,-0.1671,0.4937,3.1217,-1.4067,8.7496,1.7267,0.4921,1.4854,
3.510899,2.0489,-0.1720,0.4583,3.1217,-1.4067,8.7496,1.7267,0.4921,1.4854,
3.511372,2.0489,-0.1720,0.4583,6.3095,-0.0154,6.7049,1.7267,0.4921,1.4854,
3.513448,2.0597,-0.1734,0.4229,6.3095,-0.0154,6.7049,1.7267,0.4921,1.4854,
3.515434,2.0672,-0.1705,0.3892,6.3095,-0.0154,6.7049,1.7267,0.4921,1.4854,
3.518825,2.0731,-0.1637,0.3586,6.3095,-0.0154,6.7049,1.7267,0.4921,1.4854,
3.520450,2.0787,-0.1559,0.3296,6.3095,-0.0154,6.7049,1.7267,0.4921,1.4854,
3.522856,2.0802,-0.1512,0.3017,6.3095,-0.0154,6.7049,1.7267,0.4921,1.4854,
3.525232,2.0824,-0.1512,0.2792,6.3095,-0.0154,6.7049,1.7267,0.4921,1.4854,
3.527862,2.0855,-0.1549,0.2614,6.3095,-0.0154,6.7049,1.7267,0.4921,1.4854,
3.530231,2.0912,-0.1573,0.2443,6.3095,-0.0154,6.7049,1.7267,0.4921,1.4854,
3.533532,2.0931,-0.1615,0.2323,6.3095,-0.0154,6.7049,1.7267,0.4921,1.4854,
3.535700,2.0922,-0.1632,0.2245,6.3095,-0.0154,6.7049,1.7267,0.4921,1.4854,
3.537514,2.0872,-0.1656,0.2174,6.3095,-0.0154,6.7049,1.7267,0.4921,1.4854,
3.539797,2.0819,-0.1625,0.2179,6.3095,-0.0154,6.7049,1.7267,0.4921,1.4854,
3.542272,2.0770,-0.1590,0.2199,6.3095,-0.0154,6.7049,1.7267,0.4921,1.4854,
3.544927,2.0726,-0.1534,0.2262,6.3095,-0.0154,6.7049,1.7267,0.4921,1.4854,
3.547247,2.0721,-0.1485,0.2350,6.3095,-0.0154,6.7049,1.7267,0.4921,1.4854,
