
time;gFx;gFy;gFz;ax;ay;az;wx;wy;wz;
0,036317;0,0000;0,0000;0,0000;-0,1463;0,3999;0,0663;0,0000;0,0000;0,0000;
0,056648;0,0000;0,0000;0,0000;-0,1463;0,3999;0,0663;0,0000;0,0000;0,0000;
0,076541;0,1143;0,5795;0,7407;-0,1463;0,3999;0,0663;0,0000;0,0000;0,0000;
0,078401;0,1143;0,5795;0,7407;-0,1463;0,3999;0,0663;0,0000;0,0000;0,0000;
0,096736;0,1143;0,5795;0,7407;-0,1463;0,3999;0,0663;0,0000;0,0000;0,0000;
0,116635;0,1143;0,5795;0,7407;-0,1463;0,3999;0,0663;0,0000;0,0000;0,0000;
0,136698;0,1143;0,5795;0,7407;-0,1463;0,3999;0,0663;0,0000;0,0000;0,0000;
0,141580;0,1612;0,5082;0,6450;-0,1463;0,3999;0,0663;0,0000;0,0000;0,0000;
0,156833;0,1612;0,5082;0,6450;-0,1463;0,3999;0,0663;0,0000;0,0000;0,0000;
0,176608;0,1612;0,5082;0,6450;-0,1463;0,3999;0,0663;0,0000;0,0000;0,0000;
0,196771;0,1612;0,5082;0,6450;-0,1463;0,3999;0,0663;0,0000;0,0000;0,0000;
0,206691;0,2687;0,6401;0,8893;-0,1463;0,3999;0,0663;0,0000;0,0000;0,0000;
0,216618;0,2687;0,6401;0,8893;-0,1463;0,3999;0,0663;0,0000;0,0000;0,0000;
0,236764;0,2687;0,6401;0,8893;-0,1463;0,3999;0,0663;0,0000;0,0000;0,0000;
0,256732;0,2687;0,6401;0,8893;-0,1463;0,3999;0,0663;0,0000;0,0000;0,0000;
0,271535;0,2130;0,4036;1,0153;-0,1463;0,3999;0,0663;0,0000;0,0000;0,0000;
0,278169;0,2130;0,4036;1,0153;-0,1463;0,3999;0,0663;0,0000;0,0000;0,0000;
0,296645;0,2130;0,4036;1,0153;-0,1463;0,3999;0,0663;0,0000;0,0000;0,0000;
0,317019;0,2130;0,4036;1,0153;-0,1463;0,3999;0,0663;0,0000;0,0000;0,0000;
0,336790;0,1075;0,3928;0,8707;-0,1463;0,3999;0,0663;0,0000;0,0000;0,0000;
0,338556;0,1075;0,3928;0,8707;-0,1463;0,3999;0,0663;0,0000;0,0000;0,0000;
0,356712;0,1075;0,3928;0,8707;-1,2294;-2,3572;1,4102;0,0000;0,0000;0,0000;
0,378382;0,1075;0,3928;0,8707;-0,6804;-1,9229;1,1829;0,0000;0,0000;0,0000;
0,383464;0,1075;0,3928;0,8707;-0,6804;-1,9229;1,1829;0,0794;0,0745;-0,0440;
0,397299;0,1075;0,3928;0,8707;0,0468;-1,2665;2,0162;0,0794;0,0745;-0,0440;
0,402032;0,3166;0,4075;1,1453;0,0468;-1,2665;2,0162;0,0794;0,0745;-0,0440;
0,417418;0,3166;0,4075;1,1453;0,6884;-1,2250;3,2711;0,0794;0,0745;-0,0440;
0,437602;0,3166;0,4075;1,1453;0,6403;-1,2183;3,2159;0,0794;0,0745;-0,0440;
0,448265;0,3166;0,4075;1,1453;0,6403;-1,2183;3,2159;-0,0379;-0,2162;-0,1283;
0,457409;0,3166;0,4075;1,1453;0,2060;-0,5563;2,6382;-0,0379;-0,2162;-0,1283;
0,467459;0,3430;0,4251;1,0779;0,2060;-0,5563;2,6382;-0,0379;-0,2162;-0,1283;
0,479086;0,3430;0,4251;1,0779;0,7822;-0,2611;2,2769;-0,0379;-0,2162;-0,1283;
0,497605;0,3430;0,4251;1,0779;0,9264;-0,3805;2,5514;-0,0379;-0,2162;-0,1283;
0,513221;0,3430;0,4251;1,0779;0,9264;-0,3805;2,5514;0,2187;0,4056;-0,1686;
0,517793;0,3430;0,4251;1,0779;1,1060;-0,8840;2,6498;0,2187;0,4056;-0,1686;
0,532474;0,3420;0,3850;0,9489;1,1060;-0,8840;2,6498;0,2187;0,4056;-0,1686;
0,537627;0,3420;0,3850;0,9489;1,1567;-0,5311;1,8610;0,2187;0,4056;-0,1686;
0,560272;0,3420;0,3850;0,9489;1,0581;-0,4341;0,3965;0,2187;0,4056;-0,1686;
0,577610;0,3420;0,3850;0,9489;0,8076;-0,6982;-1,2687;0,2187;0,4056;-0,1686;
0,583708;0,3420;0,3850;0,9489;0,8076;-0,6982;-1,2687;-0,0892;0,3616;-0,2688;
0,597422;0,2111;0,3889;0,7603;0,8076;-0,6982;-1,2687;-0,0892;0,3616;-0,2688;
0,600886;0,2111;0,3889;0,7603;-0,1815;-0,6236;-1,5068;-0,0892;0,3616;-0,2688;
0,617012;0,2111;0,3889;0,7603;-0,1843;-0,4663;-0,9882;-0,0892;0,3616;-0,2688;
0,637187;0,2111;0,3889;0,7603;1,2799;-0,9639;0,0092;-0,0892;0,3616;-0,2688;
0,643484;0,2111;0,3889;0,7603;1,2799;-0,9639;0,0092;-0,7355;0,4850;-0,5803;
0,659130;0,2111;0,3889;0,7603;1,0061;-2,5324;0,2489;-0,7355;0,4850;-0,5803;
0,662603;0,1241;0,1681;0,8824;1,0061;-2,5324;0,2489;-0,7355;0,4850;-0,5803;
0,677459;0,1241;0,1681;0,8824;-0,5660;-2,2904;0,1053;-0,7355;0,4850;-0,5803;
0,697048;0,1241;0,1681;0,8824;-0,5234;-1,8423;-0,3432;-0,7355;0,4850;-0,5803;
0,707386;0,1241;0,1681;0,8824;-0,5234;-1,8423;-0,3432;-0,3482;0,1063;-0,0281;
0,717056;0,1241;0,1681;0,8824;0,6708;-1,5775;-0,3630;-0,3482;0,1063;-0,0281;
0,727076;0,3000;0,2121;0,9176;0,6708;-1,5775;-0,3630;-0,3482;0,1063;-0,0281;
0,737182;0,3000;0,2121;0,9176;1,0818;-1,3872;-0,4446;-0,3482;0,1063;-0,0281;
0,757122;0,3000;0,2121;0,9176;0,8786;-1,1221;0,6941;-0,3482;0,1063;-0,0281;
0,773197;0,3000;0,2121;0,9176;0,8786;-1,1221;0,6941;-0,5583;0,5889;0,1723;
0,777295;0,3000;0,2121;0,9176;0,7899;-0,9358;1,5526;-0,5583;0,5889;0,1723;
0,792171;0,2580;0,2541;1,0652;0,7899;-0,9358;1,5526;-0,5583;0,5889;0,1723;
0,797112;0,2580;0,2541;1,0652;0,7700;-0,5664;1,8842;-0,5583;0,5889;0,1723;
0,817502;0,2580;0,2541;1,0652;0,6099;-0,3532;1,0861;-0,5583;0,5889;0,1723;
0,840662;0,2580;0,2541;1,0652;0,8638;0,0853;0,5951;-0,5583;0,5889;0,1723;
0,845655;0,2580;0,2541;1,0652;0,8638;0,0853;0,5951;0,0806;0,2737;0,1417;
0,857504;0,3645;0,3459;1,0642;0,8638;0,0853;0,5951;0,0806;0,2737;0,1417;
0,863509;0,3645;0,3459;1,0642;1,5601;0,6806;1,1813;0,0806;0,2737;0,1417;
0,877781;0,3645;0,3459;1,0642;1,7782;0,5931;1,2935;0,0806;0,2737;0,1417;
0,897378;0,3645;0,3459;1,0642;1,0215;0,1367;0,4170;0,0806;0,2737;0,1417;
0,902249;0,3645;0,3459;1,0642;1,0215;0,1367;0,4170;0,3067;0,2639;-0,0611;
0,917472;0,3645;0,3459;1,0642;-0,0769;-0,7155;-0,6763;0,3067;0,2639;-0,0611;
0,922724;0,0840;0,1886;0,9127;-0,0769;-0,7155;-0,6763;0,3067;0,2639;-0,0611;
0,939274;0,0840;0,1886;0,9127;-0,7155;-0,9724;-0,3698;0,3067;0,2639;-0,0611;
0,957521;0,0840;0,1886;0,9127;-0,7169;-1,2259;0,2858;0,3067;0,2639;-0,0611;
0,972969;0,0840;0,1886;0,9127;-0,7169;-1,2259;0,2858;0,3677;0,7001;0,5143;
0,977783;0,0840;0,1886;0,9127;-0,3068;-0,6176;0,5642;0,3677;0,7001;0,5143;
0,989369;0,1417;0,3371;0,8795;-0,3068;-0,6176;0,5642;0,3677;0,7001;0,5143;
0,997425;0,1417;0,3371;0,8795;-0,0571;-0,1297;-0,3851;0,3677;0,7001;0,5143;
1,017487;0,1417;0,3371;0,8795;0,1618;0,7488;-0,2497;0,3677;0,7001;0,5143;
1,032532;0,1417;0,3371;0,8795;0,1618;0,7488;-0,2497;-0,0305;0,3555;0,2871;
1,037527;0,1417;0,3371;0,8795;0,3540;1,0078;0,2112;-0,0305;0,3555;0,2871;
1,054229;0,2199;0,4183;1,0056;0,3540;1,0078;0,2112;-0,0305;0,3555;0,2871;
1,059632;0,2199;0,4183;1,0056;0,5637;0,9085;0,3208;-0,0305;0,3555;0,2871;
1,077590;0,2199;0,4183;1,0056;0,9284;0,8977;0,9153;-0,0305;0,3555;0,2871;
1,097489;0,2199;0,4183;1,0056;0,7082;0,4781;1,5210;-0,0305;0,3555;0,2871;
1,102769;0,2199;0,4183;1,0056;0,7082;0,4781;1,5210;-0,3567;0,5302;-0,0586;
1,120523;0,1036;0,2746;1,1766;0,7082;0,4781;1,5210;-0,3567;0,5302;-0,0586;
1,126065;0,1036;0,2746;1,1766;0,1968;0,0321;2,1457;-0,3567;0,5302;-0,0586;
1,137535;0,1036;0,2746;1,1766;0,0059;-0,1816;2,2962;-0,3567;0,5302;-0,0586;
1,157839;0,1036;0,2746;1,1766;0,2276;0,1148;1,6186;-0,3567;0,5302;-0,0586;
1,162274;0,1036;0,2746;1,1766;0,2276;0,1148;1,6186;0,2871;0,9346;0,1295;
1,177579;0,1036;0,2746;1,1766;0,2914;0,1356;0,5350;0,2871;0,9346;0,1295;
1,182129;0,0283;0,2619;0,8316;0,2914;0,1356;0,5350;0,2871;0,9346;0,1295;
1,197657;0,0283;0,2619;0,8316;-0,1470;0,0980;-0,9059;0,2871;0,9346;0,1295;
1,219078;0,0283;0,2619;0,8316;-0,5271;-0,1782;-1,9315;0,2871;0,9346;0,1295;
1,227553;0,0283;0,2619;0,8316;-0,5271;-0,1782;-1,9315;0,3555;0,0354;0,1552;
1,237679;0,0283;0,2619;0,8316;-0,8934;0,2579;-2,5824;0,3555;0,0354;0,1552;
1,247242;0,0391;0,3371;0,8091;-0,8934;0,2579;-2,5824;0,3555;0,0354;0,1552;
1,257464;0,0391;0,3371;0,8091;-0,2478;0,4468;-2,1362;0,3555;0,0354;0,1552;
1,277681;0,0391;0,3371;0,8091;0,4261;0,8107;-0,8762;0,3555;0,0354;0,1552;
1,292627;0,0391;0,3371;0,8091;0,4261;0,8107;-0,8762;0,4850;0,1014;-0,0476;
1,297354;0,0391;0,3371;0,8091;0,4401;0,6096;-0,6047;0,4850;0,1014;-0,0476;
1,312196;-0,0293;0,3117;0,9293;0,4401;0,6096;-0,6047;0,4850;0,1014;-0,0476;
1,321288;-0,0293;0,3117;0,9293;-0,2509;0,5695;-0,2553;0,4850;0,1014;-0,0476;
1,337767;-0,0293;0,3117;0,9293;-0,5075;0,3024;-0,2092;0,4850;0,1014;-0,0476;
1,357410;-0,0293;0,3117;0,9293;-0,2942;0,6758;-0,0990;0,4850;0,1014;-0,0476;
1,361791;-0,0293;0,3117;0,9293;-0,2942;0,6758;-0,0990;0,4972;-0,0110;-0,0476;
1,377653;0,0215;0,3616;0,9166;-0,2942;0,6758;-0,0990;0,4972;-0,0110;-0,0476;
1,381317;0,0215;0,3616;0,9166;0,0007;0,6842;-0,1029;0,4972;-0,0110;-0,0476;
1,400379;0,0215;0,3616;0,9166;0,0372;0,6122;-0,2781;0,4972;-0,0110;-0,0476;
1,417464;0,0215;0,3616;0,9166;-0,1809;0,5139;-0,7244;0,4972;-0,0110;-0,0476;
1,423289;0,0215;0,3616;0,9166;-0,1809;0,5139;-0,7244;0,0415;0,0696;-0,0391;
1,437756;0,0215;0,3616;0,9166;-0,1345;0,8362;-0,4135;0,0415;0,0696;-0,0391;
1,442244;0,0010;0,3772;0,9665;-0,1345;0,8362;-0,4135;0,0415;0,0696;-0,0391;
1,457580;0,0010;0,3772;0,9665;-0,0389;0,7206;0,2585;0,0415;0,0696;-0,0391;
1,477738;0,0010;0,3772;0,9665;0,0717;0,6670;-0,0171;0,0415;0,0696;-0,0391;
1,487686;0,0010;0,3772;0,9665;0,0717;0,6670;-0,0171;0,6377;0,0073;0,0342;
1,500493;0,0010;0,3772;0,9665;0,1153;0,5699;-0,3909;0,6377;0,0073;0,0342;
1,507520;0,0098;0,3704;0,8766;0,1153;0,5699;-0,3909;0,6377;0,0073;0,0342;
1,517874;0,0098;0,3704;0,8766;0,1153;0,5432;-0,5618;0,6377;0,0073;0,0342;
1,537880;0,0098;0,3704;0,8766;-0,0057;0,3735;-0,8955;0,6377;0,0073;0,0342;
1,552948;0,0098;0,3704;0,8766;-0,0057;0,3735;-0,8955;0,4728;-0,1246;0,1527;
1,557523;0,0098;0,3704;0,8766;-0,1964;0,4247;-1,4937;0,4728;-0,1246;0,1527;
1,572231;0,0029;0,4310;0,8150;-0,1964;0,4247;-1,4937;0,4728;-0,1246;0,1527;
1,577434;0,0029;0,4310;0,8150;-0,1946;0,5275;-1,5381;0,4728;-0,1246;0,1527;
1,598230;0,0029;0,4310;0,8150;0,1214;0,8184;-1,0270;0,4728;-0,1246;0,1527;
1,617456;0,0029;0,4310;0,8150;0,4643;0,7910;-1,0190;0,4728;-0,1246;0,1527;
1,622444;0,0029;0,4310;0,8150;0,4643;0,7910;-1,0190;0,1735;-0,2162;0,0086;
1,637495;0,0352;0,4388;0,7916;0,4643;0,7910;-1,0190;0,1735;-0,2162;0,0086;
1,641521;0,0352;0,4388;0,7916;0,3961;0,7435;-1,2467;0,1735;-0,2162;0,0086;
1,657397;0,0352;0,4388;0,7916;0,1703;0,6158;-1,2317;0,1735;-0,2162;0,0086;
1,680405;0,0352;0,4388;0,7916;0,2475;0,7890;-1,0339;0,1735;-0,2162;0,0086;
1,686032;0,0352;0,4388;0,7916;0,2475;0,7890;-1,0339;-0,0403;-0,1796;0,0134;
1,698148;0,0352;0,4388;0,7916;0,3413;0,7256;-0,9885;-0,0403;-0,1796;0,0134;
1,705347;0,0586;0,4485;0,7994;0,3413;0,7256;-0,9885;-0,0403;-0,1796;0,0134;
1,717505;0,0586;0,4485;0,7994;0,2832;0,7294;-1,1745;-0,0403;-0,1796;0,0134;
1,737517;0,0586;0,4485;0,7994;0,2014;0,6768;-1,0778;-0,0403;-0,1796;0,0134;
1,747506;0,0586;0,4485;0,7994;0,2014;0,6768;-1,0778;0,2016;-0,4581;0,1100;
1,757405;0,0586;0,4485;0,7994;0,2370;0,8767;-1,0855;0,2016;-0,4581;0,1100;
1,767507;0,0557;0,4407;0,8179;0,2370;0,8767;-1,0855;0,2016;-0,4581;0,1100;
1,781634;0,0557;0,4407;0,8179;0,1527;0,5948;-0,9873;0,2016;-0,4581;0,1100;
1,797481;0,0557;0,4407;0,8179;-0,3329;0,8316;-0,7868;0,2016;-0,4581;0,1100;
1,813293;0,0557;0,4407;0,8179;-0,3329;0,8316;-0,7868;0,8687;-0,4594;0,0782;
1,818590;0,0557;0,4407;0,8179;-0,1667;0,8463;-0,5611;0,8687;-0,4594;0,0782;
1,832325;0,1055;0,4652;0,7183;-0,1667;0,8463;-0,5611;0,8687;-0,4594;0,0782;
1,837488;0,1055;0,4652;0,7183;0,1623;0,5695;-1,2269;0,8687;-0,4594;0,0782;
1,857405;0,1055;0,4652;0,7183;-0,0744;0,4170;-1,7575;0,8687;-0,4594;0,0782;
1,878072;0,1055;0,4652;0,7183;-0,3449;0,6534;-1,8252;0,8687;-0,4594;0,0782;
1,883952;0,1055;0,4652;0,7183;-0,3449;0,6534;-1,8252;0,3653;0,2443;0,2883;
1,897510;0,0938;0,5492;0,6567;-0,3449;0,6534;-1,8252;0,3653;0,2443;0,2883;
1,901417;0,0938;0,5492;0,6567;-0,3470;0,6915;-1,8783;0,3653;0,2443;0,2883;
1,917490;0,0938;0,5492;0,6567;-0,2070;0,9796;-2,1578;0,3653;0,2443;0,2883;
1,937574;0,0938;0,5492;0,6567;-0,0379;1,1312;-2,4657;0,3653;0,2443;0,2883;
1,946397;0,0938;0,5492;0,6567;-0,0379;1,1312;-2,4657;-0,1906;0,6597;0,2663;
1,961467;0,0938;0,5492;0,6567;0,2528;1,4507;-2,7256;-0,1906;0,6597;0,2663;
1,968051;0,1710;0,6401;0,6479;0,2528;1,4507;-2,7256;-0,1906;0,6597;0,2663;
1,977709;0,1710;0,6401;0,6479;0,6330;1,5929;-2,3234;-0,1906;0,6597;0,2663;
1,997479;0,1710;0,6401;0,6479;1,2077;1,4420;-1,5526;-0,1906;0,6597;0,2663;
2,010311;0,1710;0,6401;0,6479;1,2077;1,4420;-1,5526;-0,9982;0,9261;-0,0806;
2,017405;0,1710;0,6401;0,6479;1,9512;1,1905;-0,4592;-0,9982;0,9261;-0,0806;
2,027369;0,2902;0,5326;0,9938;1,9512;1,1905;-0,4592;-0,9982;0,9261;-0,0806;
2,037715;0,2902;0,5326;0,9938;2,5195;1,1432;0,6921;-0,9982;0,9261;-0,0806;
2,059443;0,2902;0,5326;0,9938;1,3615;0,7389;0,9302;-0,9982;0,9261;-0,0806;
2,076336;0,2902;0,5326;0,9938;1,3615;0,7389;0,9302;-0,0733;0,5974;0,2822;
2,081214;0,2902;0,5326;0,9938;0,1287;0,4887;0,3149;-0,0733;0,5974;0,2822;
2,092687;0,1974;0,5873;0,9479;0,1287;0,4887;0,3149;-0,0733;0,5974;0,2822;
2,097473;0,1974;0,5873;0,9479;0,7368;1,1857;0,3761;-0,0733;0,5974;0,2822;
2,117401;0,1974;0,5873;0,9479;2,0531;2,0432;0,1981;-0,0733;0,5974;0,2822;
2,137573;0,1974;0,5873;0,9479;2,5309;2,1497;-0,7720;-0,0733;0,5974;0,2822;
2,142828;0,1974;0,5873;0,9479;2,5309;2,1497;-0,7720;0,3115;0,3971;-0,5925;
2,158199;0,1739;0,5668;0,7515;2,5309;2,1497;-0,7720;0,3115;0,3971;-0,5925;
2,163342;0,1739;0,5668;0,7515;2,1986;2,1320;-1,3747;0,3115;0,3971;-0,5925;
2,177892;0,1739;0,5668;0,7515;1,5891;1,2838;-1,3714;0,3115;0,3971;-0,5925;
2,197413;0,1739;0,5668;0,7515;1,4132;0,7104;-0,9469;0,3115;0,3971;-0,5925;
2,202276;0,1739;0,5668;0,7515;1,4132;0,7104;-0,9469;-0,1955;-0,1332;-0,5852;
2,217468;0,1739;0,5668;0,7515;1,7489;0,6335;0,4502;-0,1955;-0,1332;-0,5852;
2,223454;0,2463;0,4710;1,0056;1,7489;0,6335;0,4502;-0,1955;-0,1332;-0,5852;
2,241310;0,2463;0,4710;1,0056;2,2827;0,5938;1,1396;-0,1955;-0,1332;-0,5852;
2,257955;0,2463;0,4710;1,0056;2,4572;0,3260;0,3182;-0,1955;-0,1332;-0,5852;
2,267691;0,2463;0,4710;1,0056;2,4572;0,3260;0,3182;0,4826;0,2114;-0,3983;
2,277645;0,2463;0,4710;1,0056;1,9705;0,7351;-0,6560;0,4826;0,2114;-0,3983;
2,291164;0,1720;0,5091;0,7065;1,9705;0,7351;-0,6560;0,4826;0,2114;-0,3983;
2,297562;0,1720;0,5091;0,7065;1,7207;0,6915;-1,5753;0,4826;0,2114;-0,3983;
2,317430;0,1720;0,5091;0,7065;1,5574;0,7698;-1,9434;0,4826;0,2114;-0,3983;
2,332626;0,1720;0,5091;0,7065;1,5574;0,7698;-1,9434;0,1466;-0,2297;-0,5046;
2,338111;0,1720;0,5091;0,7065;1,7616;0,6535;-1,6440;0,1466;-0,2297;-0,5046;
2,352373;0,1681;0,4857;0,7329;1,7616;0,6535;-1,6440;0,1466;-0,2297;-0,5046;
2,360435;0,1681;0,4857;0,7329;1,8852;0,5234;-1,4122;0,1466;-0,2297;-0,5046;
2,377726;0,1681;0,4857;0,7329;1,2729;0,2782;-1,4532;0,1466;-0,2297;-0,5046;
2,397483;0,1681;0,4857;0,7329;1,3300;0,1998;-1,5916;0,1466;-0,2297;-0,5046;
2,401473;0,1681;0,4857;0,7329;1,3300;0,1998;-1,5916;-0,0696;-0,4508;-0,4948;
2,417386;0,1564;0,5101;0,8199;1,3300;0,1998;-1,5916;-0,0696;-0,4508;-0,4948;
2,422440;0,1564;0,5101;0,8199;1,3805;0,3206;-1,2160;-0,0696;-0,4508;-0,4948;
2,438199;0,1564;0,5101;0,8199;1,1492;0,5691;-0,6092;-0,0696;-0,4508;-0,4948;
2,457553;0,1564;0,5101;0,8199;0,6104;0,5909;-0,2479;-0,0696;-0,4508;-0,4948;
2,463096;0,1564;0,5101;0,8199;0,6104;0,5909;-0,2479;0,3421;-0,7880;-0,6744;
2,477692;0,1564;0,5101;0,8199;0,5184;1,1805;0,2340;0,3421;-0,7880;-0,6744;
2,482089;0,1876;0,5912;0,9323;0,5184;1,1805;0,2340;0,3421;-0,7880;-0,6744;
2,497479;0,1876;0,5912;0,9323;1,0170;1,3199;0,5483;0,3421;-0,7880;-0,6744;
2,517515;0,1876;0,5912;0,9323;1,0251;0,9696;0,7794;0,3421;-0,7880;-0,6744;
2,527584;0,1876;0,5912;0,9323;1,0251;0,9696;0,7794;0,0599;-0,8735;-1,3928;
2,538196;0,1876;0,5912;0,9323;-0,0447;0,3934;0,9275;0,0599;-0,8735;-1,3928;
2,547295;-0,0948;0,3928;0,9792;-0,0447;0,3934;0,9275;0,0599;-0,8735;-1,3928;
2,557555;-0,0948;0,3928;0,9792;-1,2127;-0,4630;0,9571;0,0599;-0,8735;-1,3928;
2,577764;-0,0948;0,3928;0,9792;-1,9265;-0,9251;1,2354;0,0599;-0,8735;-1,3928;
2,592623;-0,0948;0,3928;0,9792;-1,9265;-0,9251;1,2354;-0,1332;-0,4899;-0,9664;
2,597332;-0,0948;0,3928;0,9792;-1,9439;-0,7780;1,7965;-0,1332;-0,4899;-0,9664;
2,612216;-0,1222;0,4691;0,9977;-1,9439;-0,7780;1,7965;-0,1332;-0,4899;-0,9664;
2,620446;-0,1222;0,4691;0,9977;-1,4572;-0,1672;2,0642;-0,1332;-0,4899;-0,9664;
2,637623;-0,1222;0,4691;0,9977;-2,1360;0,2504;0,8001;-0,1332;-0,4899;-0,9664;
2,657647;-0,1222;0,4691;0,9977;-2,9567;0,4264;-0,4494;-0,1332;-0,4899;-0,9664;
2,662117;-0,1222;0,4691;0,9977;-2,9567;0,4264;-0,4494;0,3641;-0,8357;-0,6964;
2,677632;-0,2580;0,5531;0,7251;-2,9567;0,4264;-0,4494;0,3641;-0,8357;-0,6964;
2,681391;-0,2580;0,5531;0,7251;-3,4379;0,6121;-1,5014;0,3641;-0,8357;-0,6964;
2,697546;-0,2580;0,5531;0,7251;-2,9001;0,7598;-1,4187;0,3641;-0,8357;-0,6964;
2,719035;-0,2580;0,5531;0,7251;-2,2493;0,6251;-0,5019;0,3641;-0,8357;-0,6964;
2,725580;-0,2580;0,5531;0,7251;-2,2493;0,6251;-0,5019;-0,6439;-1,2230;-0,9236;
2,737721;-0,2580;0,5531;0,7251;-1,7915;0,0906;1,5192;-0,6439;-1,2230;-0,9236;
2,743478;-0,1134;0,4036;1,2508;-1,7915;0,0906;1,5192;-0,6439;-1,2230;-0,9236;
2,757583;-0,1134;0,4036;1,2508;-1,9271;-0,2886;3,5121;-0,6439;-1,2230;-0,9236;
2,777549;-0,1134;0,4036;1,2508;-1,4007;-0,5306;3,2313;-0,6439;-1,2230;-0,9236;
2,787545;-0,1134;0,4036;1,2508;-1,4007;-0,5306;3,2313;0,2896;-0,6658;-0,9957;
2,797334;-0,1134;0,4036;1,2508;-1,3966;-0,2727;2,0877;0,2896;-0,6658;-0,9957;
2,807506;-0,0557;0,3694;0,8883;-1,3966;-0,2727;2,0877;0,2896;-0,6658;-0,9957;
2,817631;-0,0557;0,3694;0,8883;-1,2633;-0,4915;0,6968;0,2896;-0,6658;-0,9957;
2,837798;-0,0557;0,3694;0,8883;-1,1759;-0,6338;-0,7081;0,2896;-0,6658;-0,9957;
2,852668;-0,0557;0,3694;0,8883;-1,1759;-0,6338;-0,7081;-0,3861;-0,3201;-1,0507;
2,858231;-0,0557;0,3694;0,8883;-0,9190;-0,5306;-1,7909;-0,3861;-0,3201;-1,0507;
2,872285;0,0010;0,4036;0,6821;-0,9190;-0,5306;-1,7909;-0,3861;-0,3201;-1,0507;
2,877468;0,0010;0,4036;0,6821;-0,7052;-0,3655;-2,4467;-0,3861;-0,3201;-1,0507;
2,900315;0,0010;0,4036;0,6821;-0,6276;-0,3732;-1,8151;-0,3861;-0,3201;-1,0507;
2,917510;0,0010;0,4036;0,6821;-0,8042;-0,4764;-0,8304;-0,3861;-0,3201;-1,0507;
2,923249;0,0010;0,4036;0,6821;-0,8042;-0,4764;-0,8304;-0,2028;-0,8296;-1,2230;
2,937574;-0,0117;0,3665;0,9362;-0,8042;-0,4764;-0,8304;-0,2028;-0,8296;-1,2230;
2,941527;-0,0117;0,3665;0,9362;-0,8244;-0,4894;0,1210;-0,2028;-0,8296;-1,2230;
2,957356;-0,0117;0,3665;0,9362;-0,8560;-0,3410;0,3170;-0,2028;-0,8296;-1,2230;
2,977534;-0,0117;0,3665;0,9362;-0,7826;-0,0761;0,1567;-0,2028;-0,8296;-1,2230;
2,983033;-0,0117;0,3665;0,9362;-0,7826;-0,0761;0,1567;0,3519;-0,7941;-1,3256;
2,998340;-0,0117;0,3665;0,9362;-0,5544;0,0332;0,0611;0,3519;-0,7941;-1,3256;
3,002131;0,0352;0,4153;0,8512;-0,5544;0,0332;0,0611;0,3519;-0,7941;-1,3256;
3,017394;0,0352;0,4153;0,8512;-0,4746;-0,0372;-0,3232;0,3519;-0,7941;-1,3256;
3,037534;0,0352;0,4153;0,8512;-0,8120;-0,0456;-0,5080;0,3519;-0,7941;-1,3256;
3,048351;0,0352;0,4153;0,8512;-0,8120;-0,0456;-0,5080;-0,4728;-0,8149;-1,3561;
3,057339;0,0352;0,4153;0,8512;-0,8988;-0,0806;-0,0961;-0,4728;-0,8149;-1,3561;
3,067488;-0,0049;0,4202;0,9694;-0,8988;-0,0806;-0,0961;-0,4728;-0,8149;-1,3561;
3,077400;-0,0049;0,4202;0,9694;-0,9975;0,0800;0,4700;-0,4728;-0,8149;-1,3561;
3,097278;-0,0049;0,4202;0,9694;-1,0406;0,1547;0,9368;-0,4728;-0,8149;-1,3561;
3,114526;-0,0049;0,4202;0,9694;-1,0406;0,1547;0,9368;0,0403;-0,7660;-1,3659;
3,119531;-0,0049;0,4202;0,9694;-1,2486;0,1867;1,0093;0,0403;-0,7660;-1,3659;
3,132169;-0,0665;0,4192;0,9489;-1,2486;0,1867;1,0093;0,0403;-0,7660;-1,3659;
3,137397;-0,0665;0,4192;0,9489;-1,3630;0,1625;0,6946;0,0403;-0,7660;-1,3659;
3,157315;-0,0665;0,4192;0,9489;-1,8267;0,1746;0,4476;0,0403;-0,7660;-1,3659;
3,179522;-0,0665;0,4192;0,9489;-1,5628;0,3212;0,2360;0,0403;-0,7660;-1,3659;
3,184704;-0,0665;0,4192;0,9489;-1,5628;0,3212;0,2360;0,0159;-0,7758;-1,2437;
3,197239;-0,0235;0,4515;0,9127;-1,5628;0,3212;0,2360;0,0159;-0,7758;-1,2437;
3,201642;-0,0235;0,4515;0,9127;-1,4779;0,5170;0,0907;0,0159;-0,7758;-1,2437;
3,217480;-0,0235;0,4515;0,9127;-1,3630;0,3721;0,1877;0,0159;-0,7758;-1,2437;
3,237504;-0,0235;0,4515;0,9127;-1,4649;0,1644;0,4420;0,0159;-0,7758;-1,2437;
3,243895;-0,0235;0,4515;0,9127;-1,4649;0,1644;0,4420;0,1784;-0,6915;-1,2694;
3,257349;-0,0235;0,4515;0,9127;-1,3255;0,0477;0,6178;0,1784;-0,6915;-1,2694;
3,262430;-0,0049;0,4388;0,8785;-1,3255;0,0477;0,6178;0,1784;-0,6915;-1,2694;
3,278884;-0,0049;0,4388;0,8785;-1,4066;0,1077;0,1027;0,1784;-0,6915;-1,2694;
3,297465;-0,0049;0,4388;0,8785;-1,2825;0,1681;-0,5976;0,1784;-0,6915;-1,2694;
3,307583;-0,0049;0,4388;0,8785;-1,2825;0,1681;-0,5976;-0,0476;-0,7428;-1,3989;
3,317635;-0,0049;0,4388;0,8785;-1,3619;0,2217;-0,8176;-0,0476;-0,7428;-1,3989;
3,328808;0,0088;0,4515;0,7876;-1,3619;0,2217;-0,8176;-0,0476;-0,7428;-1,3989;
3,337491;0,0088;0,4515;0,7876;-1,1997;0,0894;-0,8850;-0,0476;-0,7428;-1,3989;
3,357423;0,0088;0,4515;0,7876;-1,3825;-0,0437;-0,7856;-0,0476;-0,7428;-1,3989;
3,372445;0,0088;0,4515;0,7876;-1,3825;-0,0437;-0,7856;-0,3897;-0,7782;-1,3696;
3,378360;0,0088;0,4515;0,7876;-1,4749;-0,2721;-0,5735;-0,3897;-0,7782;-1,3696;
3,392285;0,0020;0,4378;0,9440;-1,4749;-0,2721;-0,5735;-0,3897;-0,7782;-1,3696;
3,397586;0,0020;0,4378;0,9440;-1,6502;-0,2016;0,3590;-0,3897;-0,7782;-1,3696;
3,417382;0,0020;0,4378;0,9440;-1,2572;0,0368;0,6795;-0,3897;-0,7782;-1,3696;
3,437530;0,0020;0,4378;0,9440;-1,3476;0,1765;0,0430;-0,3897;-0,7782;-1,3696;
3,442614;0,0020;0,4378;0,9440;-1,3476;0,1765;0,0430;0,3580;-0,8430;-1,3891;
3,457220;-0,0166;0,4632;0,7876;-1,3476;0,1765;0,0430;0,3580;-0,8430;-1,3891;
3,461248;-0,0166;0,4632;0,7876;-1,4454;0,0657;-0,5786;0,3580;-0,8430;-1,3891;
3,477579;-0,0166;0,4632;0,7876;-1,6227;-0,0894;-0,7008;0,3580;-0,8430;-1,3891;
3,498499;-0,0166;0,4632;0,7876;-1,4180;-0,0340;-0,7401;0,3580;-0,8430;-1,3891;
3,504974;-0,0166;0,4632;0,7876;-1,4180;-0,0340;-0,7401;-0,3176;-0,8870;-1,3525;
3,518963;-0,0166;0,4632;0,7876;-1,4184;0,0537;-0,8525;-0,3176;-0,8870;-1,3525;
3,529206;0,0156;0,4867;0,8473;-1,4184;0,0537;-0,8525;-0,3176;-0,8870;-1,3525;
3,538162;0,0156;0,4867;0,8473;-1,2830;0,0135;-0,2224;-0,3176;-0,8870;-1,3525;
3,562298;0,0156;0,4867;0,8473;-1,5049;-0,1520;0,1811;-0,3176;-0,8870;-1,3525;
3,572581;0,0156;0,4867;0,8473;-1,5049;-0,1520;0,1811;0,1319;-1,5956;-1,4050;
3,582411;0,0156;0,4867;0,8473;-1,4657;-0,1697;0,2648;0,1319;-1,5956;-1,4050;
3,592310;-0,0479;0,3586;0,9069;-1,4657;-0,1697;0,2648;0,1319;-1,5956;-1,4050;
3,597167;-0,0479;0,3586;0,9069;-2,0762;-0,9972;0,3327;0,1319;-1,5956;-1,4050;
3,617198;-0,0479;0,3586;0,9069;-2,0051;-1,4191;1,4310;0,1319;-1,5956;-1,4050;
3,632085;-0,0479;0,3586;0,9069;-2,0051;-1,4191;1,4310;0,2688;-1,3341;-0,8931;
3,637056;-0,0479;0,3586;0,9069;-1,5565;-1,1621;2,9804;0,2688;-1,3341;-0,8931;
3,652034;0,1564;0,4437;0,8961;-1,5565;-1,1621;2,9804;0,2688;-1,3341;-0,8931;
3,657837;0,1564;0,4437;0,8961;-0,9208;-0,9442;1,9703;0,2688;-1,3341;-0,8931;
3,677270;0,1564;0,4437;0,8961;-0,8170;-0,6640;0,5315;0,2688;-1,3341;-0,8931;
3,697112;0,1564;0,4437;0,8961;-0,6526;-0,3554;-0,1908;0,2688;-1,3341;-0,8931;
3,700682;0,1564;0,4437;0,8961;-0,6526;-0,3554;-0,1908;-0,8357;-1,0275;-1,2388;
3,717476;0,1173;0,3596;0,7964;-0,6526;-0,3554;-0,1908;-0,8357;-1,0275;-1,2388;
3,722811;0,1173;0,3596;0,7964;-0,8775;-0,9947;-0,7317;-0,8357;-1,0275;-1,2388;
3,737557;0,1173;0,3596;0,7964;-1,3018;-1,5620;-0,1116;-0,8357;-1,0275;-1,2388;
3,760814;0,1173;0,3596;0,7964;-1,0611;-1,7724;1,1275;-0,8357;-1,0275;-1,2388;
3,772407;0,1173;0,3596;0,7964;-1,0611;-1,7724;1,1275;-1,0018;-0,9578;-1,0263;
3,781606;0,1173;0,3596;0,7964;0,0331;-1,4694;1,6701;-1,0018;-0,9578;-1,0263;
3,791772;0,3684;0,3342;0,9938;0,0331;-1,4694;1,6701;-1,0018;-0,9578;-1,0263;
3,800173;0,3684;0,3342;0,9938;0,6603;-1,4773;1,7511;-1,0018;-0,9578;-1,0263;
3,816967;0,3684;0,3342;0,9938;0,9064;-1,3651;1,6065;-1,0018;-0,9578;-1,0263;
3,827206;0,3684;0,3342;0,9938;0,9064;-1,3651;1,6065;-0,4300;-0,8027;-1,4966;
3,837189;0,3684;0,3342;0,9938;0,8032;-1,6910;1,4236;-0,4300;-0,8027;-1,4966;
3,846824;0,3186;0,2658;0,9059;0,8032;-1,6910;1,4236;-0,4300;-0,8027;-1,4966;
3,856897;0,3186;0,2658;0,9059;0,2850;-1,9823;0,7550;-0,4300;-0,8027;-1,4966;
3,877345;0,3186;0,2658;0,9059;0,2236;-1,8727;1,2546;-0,4300;-0,8027;-1,4966;
3,892293;0,3186;0,2658;0,9059;0,2236;-1,8727;1,2546;-0,4313;-0,6768;-1,6506;
3,896883;0,3186;0,2658;0,9059;0,5106;-1,7738;1,7080;-0,4313;-0,6768;-1,6506;
3,911859;0,3528;0,2981;0,9157;0,5106;-1,7738;1,7080;-0,4313;-0,6768;-1,6506;
3,916820;0,3528;0,2981;0,9157;0,4731;-1,8169;1,5617;-0,4313;-0,6768;-1,6506;
3,937646;0,3528;0,2981;0,9157;0,3148;-1,6660;0,8576;-0,4313;-0,6768;-1,6506;
3,957581;0,3528;0,2981;0,9157;-0,0786;-1,7008;1,0538;-0,4313;-0,6768;-1,6506;
3,963616;0,3528;0,2981;0,9157;-0,0786;-1,7008;1,0538;-0,3897;-0,7074;-1,7568;
3,978479;0,2795;0,3186;0,9694;-0,0786;-1,7008;1,0538;-0,3897;-0,7074;-1,7568;
3,984455;0,2795;0,3186;0,9694;-0,2714;-1,6447;1,3778;-0,3897;-0,7074;-1,7568;
3,998344;0,2795;0,3186;0,9694;-0,2424;-1,6513;1,5717;-0,3897;-0,7074;-1,7568;
4,023185;0,2795;0,3186;0,9694;0,0160;-1,2832;1,6329;-0,3897;-0,7074;-1,7568;
4,033005;0,2795;0,3186;0,9694;0,0160;-1,2832;1,6329;0,0782;-0,4300;-1,6725;
4,043123;0,2795;0,3186;0,9694;-0,0939;-1,4668;1,2385;0,0782;-0,4300;-1,6725;
4,053983;0,2619;0,3753;0,8394;-0,0939;-1,4668;1,2385;0,0782;-0,4300;-1,6725;
4,056828;0,2619;0,3753;0,8394;-0,1598;-1,2554;0,4496;0,0782;-0,4300;-1,6725;
4,077353;0,2619;0,3753;0,8394;-0,1342;-1,3470;0,1222;0,0782;-0,4300;-1,6725;
4,087115;0,2619;0,3753;0,8394;-0,1342;-1,3470;0,1222;-0,2224;-0,2053;-1,6640;
4,097256;0,2619;0,3753;0,8394;-0,0944;-1,4451;-0,1266;-0,2224;-0,2053;-1,6640;
4,107022;0,2375;0,3459;0,7896;-0,0944;-1,4451;-0,1266;-0,2224;-0,2053;-1,6640;
4,117323;0,2375;0,3459;0,7896;-0,0992;-1,8900;-0,3564;-0,2224;-0,2053;-1,6640;
4,137263;0,2375;0,3459;0,7896;0,0018;-1,7140;0,2716;-0,2224;-0,2053;-1,6640;
4,152485;0,2375;0,3459;0,7896;0,0018;-1,7140;0,2716;0,1405;-0,1600;-1,5418;
4,157167;0,2375;0,3459;0,7896;0,0400;-1,7730;0,6432;0,1405;-0,1600;-1,5418;
4,172209;0,1339;0,3762;0,8815;0,0400;-1,7730;0,6432;0,1405;-0,1600;-1,5418;
4,177501;0,1339;0,3762;0,8815;-0,2630;-1,5112;0,8185;0,1405;-0,1600;-1,5418;
4,197460;0,1339;0,3762;0,8815;-0,7340;-1,7075;0,6250;0,1405;-0,1600;-1,5418;
4,220399;0,1339;0,3762;0,8815;-1,0765;-1,7460;0,3816;0,1405;-0,1600;-1,5418;
4,232434;0,1339;0,3762;0,8815;-1,0765;-1,7460;0,3816;0,2859;-0,5559;-1,3561;
4,239169;0,0801;0,3753;0,8424;-1,0765;-1,7460;0,3816;0,2859;-0,5559;-1,3561;
4,243058;0,0801;0,3753;0,8424;-1,2083;-1,8058;0,5381;0,2859;-0,5559;-1,3561;
4,259048;0,0801;0,3753;0,8424;-0,6872;-1,8387;0,3878;0,2859;-0,5559;-1,3561;
4,278685;0,0801;0,3753;0,8424;-0,4452;-2,2319;1,0067;0,2859;-0,5559;-1,3561;
4,286415;0,0801;0,3753;0,8424;-0,4452;-2,2319;1,0067;-0,5327;-0,5583;-1,4795;
4,302744;0,0801;0,3753;0,8424;-0,8739;-2,5120;1,8266;-0,5327;-0,5583;-1,4795;
4,312796;-0,0381;0,2981;1,1570;-0,8739;-2,5120;1,8266;-0,5327;-0,5583;-1,4795;
4,319807;-0,0381;0,2981;1,1570;-1,4389;-2,6549;3,3613;-0,5327;-0,5583;-1,4795;
4,337275;-0,0381;0,2981;1,1570;-1,5386;-2,2339;2,9273;-0,5327;-0,5583;-1,4795;
4,347903;-0,0381;0,2981;1,1570;-1,5386;-2,2339;2,9273;0,7318;-0,4679;-0,9016;
4,356893;-0,0381;0,2981;1,1570;-1,3224;-1,7008;1,9794;0,7318;-0,4679;-0,9016;
4,366982;0,0811;0,4681;0,8658;-1,3224;-1,7008;1,9794;0,7318;-0,4679;-0,9016;
4,377118;0,0811;0,4681;0,8658;-0,5042;-1,0638;0,9539;0,7318;-0,4679;-0,9016;
4,397034;0,0811;0,4681;0,8658;-0,0415;-1,1242;0,1969;0,7318;-0,4679;-0,9016;
4,414098;0,0811;0,4681;0,8658;-0,0415;-1,1242;0,1969;-0,5253;-0,8100;-1,3525;
4,418068;0,0811;0,4681;0,8658;-0,2946;-1,5243;0,1613;-0,5253;-0,8100;-1,3525;
4,432040;0,1212;0,3919;1,0007;-0,2946;-1,5243;0,1613;-0,5253;-0,8100;-1,3525;
4,437427;0,1212;0,3919;1,0007;-0,2781;-1,9348;0,9890;-0,5253;-0,8100;-1,3525;
4,457541;0,1212;0,3919;1,0007;0,8391;-1,4811;2,1491;-0,5253;-0,8100;-1,3525;
4,477618;0,1212;0,3919;1,0007;3,4147;-0,5275;3,5016;-0,5253;-0,8100;-1,3525;
4,482755;0,1212;0,3919;1,0007;3,4147;-0,5275;3,5016;-0,7514;-1,3659;-2,8259;
4,499598;0,4202;0,4202;1,2694;3,4147;-0,5275;3,5016;-0,7514;-1,3659;-2,8259;
4,506831;0,4202;0,4202;1,2694;5,5789;0,0872;4,3113;-0,7514;-1,3659;-2,8259;
4,522886;0,4202;0,4202;1,2694;3,2977;-1,0522;4,2451;-0,7514;-1,3659;-2,8259;
4,537159;0,4202;0,4202;1,2694;-0,5379;-2,4148;4,2617;-0,7514;-1,3659;-2,8259;
4,542100;0,4202;0,4202;1,2694;-0,5379;-2,4148;4,2617;1,4502;-0,3983;-2,5485;
4,557121;0,4202;0,4202;1,2694;-1,4244;-3,3142;2,2421;1,4502;-0,3983;-2,5485;
4,564085;-0,1251;0,2648;0,7955;-1,4244;-3,3142;2,2421;1,4502;-0,3983;-2,5485;
4,580414;-0,1251;0,2648;0,7955;-1,3372;-2,8756;-0,0469;1,4502;-0,3983;-2,5485;
4,597419;-0,1251;0,2648;0,7955;-1,3258;-2,3878;-0,8440;1,4502;-0,3983;-2,5485;
4,607810;-0,1251;0,2648;0,7955;-1,3258;-2,3878;-0,8440;0,3897;-1,5699;-1,7165;
4,618499;-0,1251;0,2648;0,7955;-1,0522;-2,1906;-0,8520;0,3897;-1,5699;-1,7165;
4,634337;-0,1085;0,3010;0,7671;-1,0522;-2,1906;-0,8520;0,3897;-1,5699;-1,7165;
4,644889;-0,1085;0,3010;0,7671;-1,2029;-2,5042;-0,5396;0,3897;-1,5699;-1,7165;
4,659055;-0,1085;0,3010;0,7671;-1,0219;-2,8608;-0,2162;0,3897;-1,5699;-1,7165;
4,673355;-0,1085;0,3010;0,7671;-1,0219;-2,8608;-0,2162;-0,1955;-1,4722;-1,0470;
4,682758;-0,1085;0,3010;0,7671;-0,8151;-2,7937;0,4351;-0,1955;-1,4722;-1,0470;
4,699573;0,1182;0,3684;1,0232;-0,8151;-2,7937;0,4351;-0,1955;-1,4722;-1,0470;
4,706740;0,1182;0,3684;1,0232;0,1253;-2,0347;1,5197;-0,1955;-1,4722;-1,0470;
4,718335;0,1182;0,3684;1,0232;1,1126;-1,7430;2,0334;-0,1955;-1,4722;-1,0470;
4,737301;0,1182;0,3684;1,0232;1,1848;-1,5553;2,1379;-0,1955;-1,4722;-1,0470;
4,740541;0,1182;0,3684;1,0232;1,1848;-1,5553;2,1379;0,3470;-1,2022;-1,4050;
4,757009;0,0029;0,3498;0,8854;1,1848;-1,5553;2,1379;0,3470;-1,2022;-1,4050;
4,760394;0,0029;0,3498;0,8854;0,2023;-2,0340;1,5127;0,3470;-1,2022;-1,4050;
4,777344;0,0029;0,3498;0,8854;-0,4297;-1,8576;0,5274;0,3470;-1,2022;-1,4050;
4,797142;0,0029;0,3498;0,8854;-0,1293;-1,5015;0,2170;0,3470;-1,2022;-1,4050;
4,802124;0,0029;0,3498;0,8854;-0,1293;-1,5015;0,2170;0,0684;-1,3622;-1,3854;
4,817066;0,0029;0,3498;0,8854;-0,0120;-1,1361;0,7600;0,0684;-1,3622;-1,3854;
4,821969;0,0459;0,4749;1,0124;-0,0120;-1,1361;0,7600;0,0684;-1,3622;-1,3854;
4,837447;0,0459;0,4749;1,0124;-0,2056;-0,8571;1,7552;0,0684;-1,3622;-1,3854;
4,857404;0,0459;0,4749;1,0124;-0,0577;-0,5771;1,8306;0,0684;-1,3622;-1,3854;
4,867560;0,0459;0,4749;1,0124;-0,0577;-0,5771;1,8306;0,1222;-0,9615;-1,6420;
4,877827;0,0459;0,4749;1,0124;0,4531;-0,3979;1,2380;0,1222;-0,9615;-1,6420;
4,887582;0,1378;0,4994;0,9411;0,4531;-0,3979;1,2380;0,1222;-0,9615;-1,6420;
4,898548;0,1378;0,4994;0,9411;0,7509;-0,3796;1,5631;0,1222;-0,9615;-1,6420;
4,918348;0,1378;0,4994;0,9411;0,3824;-0,5267;0,5551;0,1222;-0,9615;-1,6420;
4,934682;0,1378;0,4994;0,9411;0,3824;-0,5267;0,5551;-0,1295;-1,4759;-1,3549;
4,945507;0,1378;0,4994;0,9411;-0,1349;-0,4354;-0,4509;-0,1295;-1,4759;-1,3549;
4,953969;0,1417;0,4202;0,6977;-0,1349;-0,4354;-0,4509;-0,1295;-1,4759;-1,3549;
4,957959;0,1417;0,4202;0,6977;0,2963;-0,7293;-0,7136;-0,1295;-1,4759;-1,3549;
4,977214;0,1417;0,4202;0,6977;0,6494;-1,4519;-1,5338;-0,1295;-1,4759;-1,3549;
4,997078;0,1417;0,4202;0,6977;0,7910;-1,2258;-2,8080;-0,1295;-1,4759;-1,3549;
5,000126;0,1417;0,4202;0,6977;0,7910;-1,2258;-2,8080;-0,8393;-1,1790;-0,7489;
5,017020;0,2531;0,5130;0,6684;0,7910;-1,2258;-2,8080;-0,8393;-1,1790;-0,7489;
5,019553;0,2531;0,5130;0,6684;0,8839;-0,2871;-2,5725;-0,8393;-1,1790;-0,7489;
5,037192;0,2531;0,5130;0,6684;1,3105;-0,3007;-1,5025;-0,8393;-1,1790;-0,7489;
5,057264;0,2531;0,5130;0,6684;0,9840;-0,4477;-0,2755;-0,8393;-1,1790;-0,7489;
5,062394;0,2531;0,5130;0,6684;0,9840;-0,4477;-0,2755;-1,1350;-0,9566;-0,8002;
5,077689;0,2531;0,5130;0,6684;-0,0032;-0,6035;0,4310;-1,1350;-0,9566;-0,8002;
5,082771;0,1407;0,4495;0,9694;-0,0032;-0,6035;0,4310;-1,1350;-0,9566;-0,8002;
5,097590;0,1407;0,4495;0,9694;-0,1848;-0,3578;0,8885;-1,1350;-0,9566;-0,8002;
5,117186;0,1407;0,4495;0,9694;0,1174;-0,0547;1,3706;-1,1350;-0,9566;-0,8002;
5,127152;0,1407;0,4495;0,9694;0,1174;-0,0547;1,3706;0,3396;-0,8968;-0,8980;
5,138511;0,1407;0,4495;0,9694;-0,0526;0,1354;1,0013;0,3396;-0,8968;-0,8980;
5,147010;0,1573;0,4964;0,7896;-0,0526;0,1354;1,0013;0,3396;-0,8968;-0,8980;
5,157146;0,1573;0,4964;0,7896;-0,3634;0,1407;0,0031;0,3396;-0,8968;-0,8980;
5,177134;0,1573;0,4964;0,7896;-0,0184;0,3782;-0,8962;0,3396;-0,8968;-0,8980;
5,192209;0,1573;0,4964;0,7896;-0,0184;0,3782;-0,8962;-0,3323;-0,5534;-0,9701;
5,196996;0,1573;0,4964;0,7896;-0,1352;0,2862;-1,3111;-0,3323;-0,5534;-0,9701;
5,211999;0,1476;0,4700;0,6626;-0,1352;0,2862;-1,3111;-0,3323;-0,5534;-0,9701;
5,216982;0,1476;0,4700;0,6626;-0,3112;-0,1723;-1,5113;-0,3323;-0,5534;-0,9701;
5,237611;0,1476;0,4700;0,6626;-0,2232;-0,1724;-1,7206;-0,3323;-0,5534;-0,9701;
5,257543;0,1476;0,4700;0,6626;0,0769;0,4093;-0,7133;-0,3323;-0,5534;-0,9701;
5,262523;0,1476;0,4700;0,6626;0,0769;0,4093;-0,7133;-0,1869;-0,3018;-1,0531;
5,278484;0,1055;0,4730;0,6704;0,0769;0,4093;-0,7133;-0,1869;-0,3018;-1,0531;
5,285001;0,1055;0,4730;0,6704;-0,2496;0,0477;-0,4936;-0,1869;-0,3018;-1,0531;
5,298477;0,1055;0,4730;0,6704;-0,6702;-0,2779;-1,6492;-0,1869;-0,3018;-1,0531;
5,318286;0,1055;0,4730;0,6704;-0,2224;0,3662;-1,9685;-0,1869;-0,3018;-1,0531;
5,323564;0,1055;0,4730;0,6704;-0,2224;0,3662;-1,9685;-0,5828;-0,2407;-0,8943;
5,338613;0,1055;0,4730;0,6704;0,3310;0,6524;-1,7069;-0,5828;-0,2407;-0,8943;
5,346032;0,1906;0,5472;0,7231;0,3310;0,6524;-1,7069;-0,5828;-0,2407;-0,8943;
5,358306;0,1906;0,5472;0,7231;0,2171;0,5220;-1,2575;-0,5828;-0,2407;-0,8943;
5,378941;0,1906;0,5472;0,7231;0,1305;0,2632;-0,8064;-0,5828;-0,2407;-0,8943;
5,389064;0,1906;0,5472;0,7231;0,1305;0,2632;-0,8064;-0,5082;-0,1674;-0,6524;
5,398049;0,1906;0,5472;0,7231;0,0718;0,2463;-0,7023;-0,5082;-0,1674;-0,6524;
5,408224;0,1700;0,5091;0,8023;0,0718;0,2463;-0,7023;-0,5082;-0,1674;-0,6524;
5,422805;0,1700;0,5091;0,8023;0,0510;0,3429;-0,5093;-0,5082;-0,1674;-0,6524;
5,440404;0,1700;0,5091;0,8023;0,1342;0,2127;-0,6497;-0,5082;-0,1674;-0,6524;
5,455302;0,1700;0,5091;0,8023;0,1342;0,2127;-0,6497;-0,4630;0,4362;-0,6219;
5,459451;0,1700;0,5091;0,8023;0,0818;0,3313;-0,7545;-0,4630;0,4362;-0,6219;
5,471826;0,1085;0,6020;0,8805;0,0818;0,3313;-0,7545;-0,4630;0,4362;-0,6219;
5,477170;0,1085;0,6020;0,8805;-0,1767;0,9839;-0,1999;-0,4630;0,4362;-0,6219;
5,497067;0,1085;0,6020;0,8805;-0,3046;1,2338;0,2695;-0,4630;0,4362;-0,6219;
5,517156;0,1085;0,6020;0,8805;-1,0471;1,2855;0,7689;-0,4630;0,4362;-0,6219;
5,520301;0,1085;0,6020;0,8805;-1,0471;1,2855;0,7689;-1,7373;0,0794;-0,9114;
5,537093;0,0039;0,5287;1,4854;-1,0471;1,2855;0,7689;-1,7373;0,0794;-0,9114;
5,540576;0,0039;0,5287;1,4854;-1,3825;1,5458;2,8485;-1,7373;0,0794;-0,9114;
5,557248;0,0039;0,5287;1,4854;-0,6430;1,2113;5,7110;-1,7373;0,0794;-0,9114;
5,577821;0,0039;0,5287;1,4854;-0,1746;0,5191;5,8382;-1,7373;0,0794;-0,9114;
5,583456;0,0039;0,5287;1,4854;-0,1746;0,5191;5,8382;0,6817;0,5742;-0,5620;
5,597462;0,0039;0,5287;1,4854;-0,4271;0,4651;4,4382;0,6817;0,5742;-0,5620;
5,602656;-0,0557;0,4173;1,1189;-0,4271;0,4651;4,4382;0,6817;0,5742;-0,5620;
5,619727;-0,0557;0,4173;1,1189;-0,6713;0,3939;2,3909;0,6817;0,5742;-0,5620;
5,638808;-0,0557;0,4173;1,1189;-1,1173;0,2389;0,9777;0,6817;0,5742;-0,5620;
5,649962;-0,0557;0,4173;1,1189;-1,1173;0,2389;0,9777;1,1338;0,3250;-0,6365;
5,659462;-0,0557;0,4173;1,1189;-1,1293;-0,2354;-0,4639;1,1338;0,3250;-0,6365;
5,672128;-0,1476;0,3694;0,7212;-1,1293;-0,2354;-0,4639;1,1338;0,3250;-0,6365;
5,677067;-0,1476;0,3694;0,7212;-1,1949;-0,7185;-1,4671;1,1338;0,3250;-0,6365;
5,696895;-0,1476;0,3694;0,7212;-1,1937;-0,9795;-1,5078;1,1338;0,3250;-0,6365;
5,712181;-0,1476;0,3694;0,7212;-1,1937;-0,9795;-1,5078;0,5131;0,2773;-0,0757;
5,717980;-0,1476;0,3694;0,7212;-1,5321;-1,2209;-1,4385;0,5131;0,2773;-0,0757;
5,731783;-0,1466;0,3811;0,6411;-1,5321;-1,2209;-1,4385;0,5131;0,2773;-0,0757;
5,737152;-0,1466;0,3811;0,6411;-1,1030;-1,1208;-1,8215;0,5131;0,2773;-0,0757;
5,757104;-0,1466;0,3811;0,6411;-0,5447;-1,0302;-2,1813;0,5131;0,2773;-0,0757;
5,777543;-0,1466;0,3811;0,6411;0,3616;-0,9516;-1,8762;0,5131;0,2773;-0,0757;
5,781693;-0,1466;0,3811;0,6411;0,3616;-0,9516;-1,8762;0,0403;-0,7563;-0,2407;
5,798581;0,0850;0,4417;0,8854;0,3616;-0,9516;-1,8762;0,0403;-0,7563;-0,2407;
5,803847;0,0850;0,4417;0,8854;0,9130;-0,6155;-0,7873;0,0403;-0,7563;-0,2407;
5,817491;0,0850;0,4417;0,8854;1,2023;-0,5502;0,2751;0,0403;-0,7563;-0,2407;
5,838501;0,0850;0,4417;0,8854;0,9691;-0,5697;1,1473;0,0403;-0,7563;-0,2407;
5,846039;0,0850;0,4417;0,8854;0,9691;-0,5697;1,1473;-0,2993;-0,2981;-0,5351;
5,859352;0,0850;0,4417;0,8854;0,7705;-0,6928;1,2467;-0,2993;-0,2981;-0,5351;
5,868965;0,0235;0,4007;0,9323;0,7705;-0,6928;1,2467;-0,2993;-0,2981;-0,5351;
5,883889;0,0235;0,4007;0,9323;0,5575;-0,6928;0,7830;-0,2993;-0,2981;-0,5351;
5,900866;0,0235;0,4007;0,9323;0,3543;-0,5548;-0,0979;-0,2993;-0,2981;-0,5351;
5,916078;0,0235;0,4007;0,9323;0,3543;-0,5548;-0,0979;0,0342;-0,6451;-0,6475;
5,918619;0,0235;0,4007;0,9323;0,0129;-0,6610;-0,7317;0,0342;-0,6451;-0,6475;
5,928043;-0,1251;0,3244;0,8189;0,0129;-0,6610;-0,7317;0,0342;-0,6451;-0,6475;
5,937180;-0,1251;0,3244;0,8189;-0,5607;-1,0706;-0,9541;0,0342;-0,6451;-0,6475;
5,957406;-0,1251;0,3244;0,8189;-1,4150;-1,6864;-0,2018;0,0342;-0,6451;-0,6475;
5,972528;-0,1251;0,3244;0,8189;-1,4150;-1,6864;-0,2018;0,0538;-0,5143;-0,0916;
5,979872;-0,1251;0,3244;0,8189;-1,2823;-1,9430;-0,0899;0,0538;-0,5143;-0,0916;
5,992435;-0,0880;0,3352;0,7505;-1,2823;-1,9430;-0,0899;0,0538;-0,5143;-0,0916;
5,997935;-0,0880;0,3352;0,7505;-1,1586;-1,7096;-0,6300;0,0538;-0,5143;-0,0916;
6,017084;-0,0880;0,3352;0,7505;-0,6299;-0,8725;-1,4067;0,0538;-0,5143;-0,0916;
6,037202;-0,0880;0,3352;0,7505;-0,1558;0,0450;-1,0518;0,0538;-0,5143;-0,0916;
6,040252;-0,0880;0,3352;0,7505;-0,1558;0,0450;-1,0518;-0,1491;-0,9627;-0,8320;
6,056972;-0,0020;0,4007;0,8883;-0,1558;0,0450;-1,0518;-0,1491;-0,9627;-0,8320;
6,059741;-0,0020;0,4007;0,8883;-0,2483;-0,0953;-0,3969;-0,1491;-0,9627;-0,8320;
6,077542;-0,0020;0,4007;0,8883;-0,2660;-0,4702;0,0379;-0,1491;-0,9627;-0,8320;
6,097044;-0,0020;0,4007;0,8883;-0,7238;-0,8329;0,4302;-0,1491;-0,9627;-0,8320;
6,101974;-0,0020;0,4007;0,8883;-0,7238;-0,8329;0,4302;-0,5522;-0,6072;-0,9395;
6,117019;-0,0020;0,4007;0,8883;-0,9700;-0,6239;0,6422;-0,5522;-0,6072;-0,9395;
6,121886;0,0205;0,4261;0,9733;-0,9700;-0,6239;0,6422;-0,5522;-0,6072;-0,9395;
6,137206;0,0205;0,4261;0,9733;-0,2610;-0,0122;0,6682;-0,5522;-0,6072;-0,9395;
6,157162;0,0205;0,4261;0,9733;0,1965;0,4793;1,1439;-0,5522;-0,6072;-0,9395;
6,167035;0,0205;0,4261;0,9733;0,1965;0,4793;1,1439;-0,3384;-0,7233;-1,1484;
6,177220;0,0205;0,4261;0,9733;0,1763;0,2823;1,7647;-0,3384;-0,7233;-1,1484;
6,187074;-0,0430;0,4876;1,0730;0,1763;0,2823;1,7647;-0,3384;-0,7233;-1,1484;
6,197176;-0,0430;0,4876;1,0730;-0,7277;0,4269;1,9976;-0,3384;-0,7233;-1,1484;
6,217053;-0,0430;0,4876;1,0730;-0,4170;1,1330;0,9673;-0,3384;-0,7233;-1,1484;
6,232333;-0,0430;0,4876;1,0730;-0,4170;1,1330;0,9673;-0,1796;-0,2101;-1,1203;
6,237145;-0,0430;0,4876;1,0730;0,4573;1,3308;0,6210;-0,1796;-0,2101;-1,1203;
6,252007;-0,0928;0,4407;1,0056;0,4573;1,3308;0,6210;-0,1796;-0,2101;-1,1203;
6,258442;-0,0928;0,4407;1,0056;-0,3861;0,9414;0,8142;-0,1796;-0,2101;-1,1203;
6,277707;-0,0928;0,4407;1,0056;-1,7502;0,1955;1,0371;-0,1796;-0,2101;-1,1203;
6,297605;-0,0928;0,4407;1,0056;-2,0672;-0,2174;1,2640;-0,1796;-0,2101;-1,1203;
6,303015;-0,0928;0,4407;1,0056;-2,0672;-0,2174;1,2640;-0,4911;1,1093;0,1808;
6,318304;0,0049;0,3010;1,0378;-2,0672;-0,2174;1,2640;-0,4911;1,1093;0,1808;
6,327570;0,0049;0,3010;1,0378;-1,5289;-0,6032;1,3985;-0,4911;1,1093;0,1808;
6,338596;0,0049;0,3010;1,0378;0,2888;-0,6183;1,1346;-0,4911;1,1093;0,1808;
6,360957;0,0049;0,3010;1,0378;1,9489;0,2846;-0,1678;-0,4911;1,1093;0,1808;
6,371193;0,0049;0,3010;1,0378;1,9489;0,2846;-0,1678;-1,1228;1,4954;0,0171;
6,381624;0,0049;0,3010;1,0378;2,3043;1,1613;-1,5124;-1,1228;1,4954;0,0171;
6,391764;0,1104;0,4573;0,8463;2,3043;1,1613;-1,5124;-1,1228;1,4954;0,0171;
6,397195;0,1104;0,4573;0,8463;2,1114;1,3000;-1,1946;-1,1228;1,4954;0,0171;
6,417100;0,1104;0,4573;0,8463;1,8160;0,7509;0,8473;-1,1228;1,4954;0,0171;
6,427223;0,1104;0,4573;0,8463;1,8160;0,7509;0,8473;-1,0971;0,6365;-0,2004;
6,437152;0,1104;0,4573;0,8463;2,3514;0,6228;2,6230;-1,0971;0,6365;-0,2004;
6,446851;0,1554;0,3010;1,1004;2,3514;0,6228;2,6230;-1,0971;0,6365;-0,2004;
6,457031;0,1554;0,3010;1,1004;2,3273;0,2986;2,3554;-1,0971;0,6365;-0,2004;
6,477182;0,1554;0,3010;1,1004;2,6693;0,7836;0,4949;-1,0971;0,6365;-0,2004;
6,492552;0,1554;0,3010;1,1004;2,6693;0,7836;0,4949;0,4337;-0,5266;-0,1649;
6,497397;0,1554;0,3010;1,1004;2,9377;1,7055;-1,1396;0,4337;-0,5266;-0,1649;
6,512028;0,1769;0,4710;0,7056;2,9377;1,7055;-1,1396;0,4337;-0,5266;-0,1649;
6,517334;0,1769;0,4710;0,7056;3,2068;2,2474;-2,2083;0,4337;-0,5266;-0,1649;
6,537704;0,1769;0,4710;0,7056;2,1073;1,5549;-2,1822;0,4337;-0,5266;-0,1649;
6,558366;0,1769;0,4710;0,7056;1,5403;1,1292;-1,1800;0,4337;-0,5266;-0,1649;
6,570085;0,1769;0,4710;0,7056;1,5403;1,1292;-1,1800;0,5034;-1,0177;-0,4227;
6,580724;0,1192;0,3713;0,8903;1,5403;1,1292;-1,1800;0,5034;-1,0177;-0,4227;
6,590275;0,1192;0,3713;0,8903;1,3653;0,7932;-0,4056;0,5034;-1,0177;-0,4227;
6,597006;0,1192;0,3713;0,8903;1,1128;0,4021;-0,4411;0,5034;-1,0177;-0,4227;
6,616979;0,1192;0,3713;0,8903;0,5586;0,3180;-1,5106;0,5034;-1,0177;-0,4227;
6,623764;0,1192;0,3713;0,8903;0,5586;0,3180;-1,5106;0,5400;-1,5149;-0,0672;
6,637441;0,1192;0,3713;0,8903;0,7241;1,0126;-1,5355;0,5400;-1,5149;-0,0672;
6,641758;0,1788;0,4808;0,8746;0,7241;1,0126;-1,5355;0,5400;-1,5149;-0,0672;
6,657072;0,1788;0,4808;0,8746;0,9130;1,1622;-0,5848;0,5400;-1,5149;-0,0672;
6,677184;0,1788;0,4808;0,8746;0,9515;0,7643;-0,0379;0,5400;-1,5149;-0,0672;
6,687126;0,1788;0,4808;0,8746;0,9515;0,7643;-0,0379;0,2871;-0,6365;-0,6158;
6,696894;0,1788;0,4808;0,8746;0,5662;0,4182;0,6050;0,2871;-0,6365;-0,6158;
6,707378;0,1007;0,4427;0,9049;0,5662;0,4182;0,6050;0,2871;-0,6365;-0,6158;
6,717400;0,1007;0,4427;0,9049;-0,1218;0,3430;0,1775;0,2871;-0,6365;-0,6158;
6,737651;0,1007;0,4427;0,9049;-0,2175;0,4835;-0,1169;0,2871;-0,6365;-0,6158;
6,754218;0,1007;0,4427;0,9049;-0,2175;0,4835;-0,1169;0,6329;-0,3567;-0,7685;
6,763819;0,1007;0,4427;0,9049;-0,4375;0,2866;-0,6297;0,6329;-0,3567;-0,7685;
6,778308;0,0049;0,4085;0,6899;-0,4375;0,2866;-0,6297;0,6329;-0,3567;-0,7685;
6,785242;0,0049;0,4085;0,6899;-0,8270;-0,1115;-1,3712;0,6329;-0,3567;-0,7685;
6,797114;0,0049;0,4085;0,6899;-1,3169;-0,3132;-2,0177;0,6329;-0,3567;-0,7685;
6,816892;0,0049;0,4085;0,6899;-1,2232;-0,0594;-1,7247;0,6329;-0,3567;-0,7685;
6,820381;0,0049;0,4085;0,6899;-1,2232;-0,0594;-1,7247;0,9762;0,1857;-0,4826;
6,837139;0,0450;0,5082;0,5893;-1,2232;-0,0594;-1,7247;0,9762;0,1857;-0,4826;
6,839935;0,0450;0,5082;0,5893;-0,6469;0,1765;-1,5571;0,9762;0,1857;-0,4826;
6,857040;0,0450;0,5082;0,5893;-0,7844;-0,0229;-2,4762;0,9762;0,1857;-0,4826;
6,877204;0,0450;0,5082;0,5893;-1,5051;-0,2119;-2,8608;0,9762;0,1857;-0,4826;
6,881924;0,0450;0,5082;0,5893;-1,5051;-0,2119;-2,8608;0,3274;0,8271;0,0220;
6,897060;0,0450;0,5082;0,5893;-1,2135;-0,1865;-1,9119;0,3274;0,8271;0,0220;
6,901779;0,0752;0,6332;0,6635;-1,2135;-0,1865;-1,9119;0,3274;0,8271;0,0220;
6,918679;0,0752;0,6332;0,6635;-0,0770;0,7172;-1,6834;0,3274;0,8271;0,0220;
6,937750;0,0752;0,6332;0,6635;0,0124;1,1769;-0,9974;0,3274;0,8271;0,0220;
6,947636;0,0752;0,6332;0,6635;0,0124;1,1769;-0,9974;-0,0440;0,5974;-0,2834;
6,958680;0,0752;0,6332;0,6635;-0,1804;0,3021;0,4434;-0,0440;0,5974;-0,2834;
6,970308;-0,0762;0,5248;1,1297;-0,1804;0,3021;0,4434;-0,0440;0,5974;-0,2834;
6,980486;-0,0762;0,5248;1,1297;-0,5799;-0,2068;2,6870;-0,0440;0,5974;-0,2834;
6,997378;-0,0762;0,5248;1,1297;-0,7753;0,4528;1,9054;-0,0440;0,5974;-0,2834;
7,012147;-0,0762;0,5248;1,1297;-0,7753;0,4528;1,9054;0,1002;-0,6145;-0,3836;
7,018061;-0,0762;0,5248;1,1297;0,2044;1,2066;-0,1990;0,1002;-0,6145;-0,3836;
7,032565;0,0811;0,6586;1,2596;0,2044;1,2066;-0,1990;0,1002;-0,6145;-0,3836;
7,037334;0,0811;0,6586;1,2596;0,6621;1,6523;1,3885;0,1002;-0,6145;-0,3836;
7,057077;0,0811;0,6586;1,2596;0,9174;0,8358;5,1006;0,1002;-0,6145;-0,3836;
7,077268;0,0811;0,6586;1,2596;0,1424;-0,4725;7,5167;0,1002;-0,6145;-0,3836;
7,080954;0,0811;0,6586;1,2596;0,1424;-0,4725;7,5167;0,0611;0,1869;-0,6316;
7,096865;-0,0870;0,3567;1,3877;0,1424;-0,4725;7,5167;0,0611;0,1869;-0,6316;
7,101252;-0,0870;0,3567;1,3877;-0,3068;-1,6648;7,4376;0,0611;0,1869;-0,6316;
7,117641;-0,0870;0,3567;1,3877;-0,5912;-1,4839;5,2522;0,0611;0,1869;-0,6316;
7,137687;-0,0870;0,3567;1,3877;-0,5686;-0,1377;1,6510;0,0611;0,1869;-0,6316;
7,142840;-0,0870;0,3567;1,3877;-0,5686;-0,1377;1,6510;0,1967;-0,1637;-0,1478;
7,158266;-0,0870;0,3567;1,3877;-0,2807;0,2256;-0,2694;0,1967;-0,1637;-0,1478;
7,166086;-0,0391;0,4251;0,9303;-0,2807;0,2256;-0,2694;0,1967;-0,1637;-0,1478;
7,178628;-0,0391;0,4251;0,9303;0,0725;-0,5936;0,4867;0,1967;-0,1637;-0,1478;
7,202115;-0,0391;0,4251;0,9303;0,1352;-1,6461;1,8417;0,1967;-0,1637;-0,1478;
7,215641;-0,0391;0,4251;0,9303;0,1352;-1,6461;1,8417;0,7660;-0,4740;-0,2480;
7,220098;-0,0391;0,4251;0,9303;0,5729;-1,8437;2,3092;0,7660;-0,4740;-0,2480;
7,230375;0,1173;0,3020;0,9098;0,5729;-1,8437;2,3092;0,7660;-0,4740;-0,2480;
7,237162;0,1173;0,3020;0,9098;1,2266;-2,0756;1,7027;0,7660;-0,4740;-0,2480;
7,257020;0,1173;0,3020;0,9098;1,0581;-2,0435;-0,5021;0,7660;-0,4740;-0,2480;
7,272227;0,1173;0,3020;0,9098;1,0581;-2,0435;-0,5021;0,1930;-0,5913;-0,5534;
7,277186;0,1173;0,3020;0,9098;0,7714;-1,8352;-2,4296;0,1930;-0,5913;-0,5534;
7,292032;0,0723;0,3596;0,6723;0,7714;-1,8352;-2,4296;0,1930;-0,5913;-0,5534;
7,297036;0,0723;0,3596;0,6723;0,8190;-1,6466;-2,3094;0,1930;-0,5913;-0,5534;
7,317167;0,0723;0,3596;0,6723;0,6125;-1,8979;-1,3709;0,1930;-0,5913;-0,5534;
7,337564;0,0723;0,3596;0,6723;0,0928;-2,1624;-1,0547;0,1930;-0,5913;-0,5534;
7,341290;0,0723;0,3596;0,6723;0,0928;-2,1624;-1,0547;-0,0415;-0,4472;-0,6829;
7,357506;-0,0303;0,3020;0,8043;0,0928;-2,1624;-1,0547;-0,0415;-0,4472;-0,6829;
7,361798;-0,0303;0,3020;0,8043;-0,3062;-2,3889;-0,8543;-0,0415;-0,4472;-0,6829;
7,380275;-0,0303;0,3020;0,8043;-0,2316;-2,1098;-0,4164;-0,0415;-0,4472;-0,6829;
7,398164;-0,0303;0,3020;0,8043;-0,0581;-2,0123;-0,2745;-0,0415;-0,4472;-0,6829;
7,410118;-0,0303;0,3020;0,8043;-0,0581;-2,0123;-0,2745;0,1222;-0,3176;-0,3250;
7,419322;-0,0303;0,3020;0,8043;-0,1820;-1,7023;-0,5572;0,1222;-0,3176;-0,3250;
7,433007;-0,0322;0,4124;0,7261;-0,1820;-1,7023;-0,5572;0,1222;-0,3176;-0,3250;
7,440919;-0,0322;0,4124;0,7261;-0,3159;-1,2029;-1,0818;0,1222;-0,3176;-0,3250;
7,457008;-0,0322;0,4124;0,7261;-0,1625;-0,7093;-1,2195;0,1222;-0,3176;-0,3250;
7,471241;-0,0322;0,4124;0,7261;-0,1625;-0,7093;-1,2195;-1,0531;-0,7514;-0,6121;
7,477140;-0,0322;0,4124;0,7261;0,1748;-0,6578;-0,6112;-1,0531;-0,7514;-0,6121;
7,486826;0,0352;0,4270;1,0017;0,1748;-0,6578;-0,6112;-1,0531;-0,7514;-0,6121;
7,497119;0,0352;0,4270;1,0017;0,1418;-0,4480;0,7036;-1,0531;-0,7514;-0,6121;
7,517168;0,0352;0,4270;1,0017;0,2772;-0,5449;1,7863;-1,0531;-0,7514;-0,6121;
7,532078;0,0352;0,4270;1,0017;0,2772;-0,5449;1,7863;-0,2456;-0,5583;-1,1350;
7,537080;0,0352;0,4270;1,0017;0,3320;-0,3145;2,0764;-0,2456;-0,5583;-1,1350;
7,551928;0,0537;0,4505;0,9450;0,3320;-0,3145;2,0764;-0,2456;-0,5583;-1,1350;
7,556895;0,0537;0,4505;0,9450;0,2553;0,0389;1,3722;-0,2456;-0,5583;-1,1350;
7,577674;0,0537;0,4505;0,9450;0,0626;0,0737;0,4665;-0,2456;-0,5583;-1,1350;
7,597537;0,0537;0,4505;0,9450;-0,0853;-0,0331;0,6620;-0,2456;-0,5583;-1,1350;
7,602834;0,0537;0,4505;0,9450;-0,0853;-0,0331;0,6620;-0,7526;-1,0934;-1,5430;
7,618647;0,0498;0,3577;1,1766;-0,0853;-0,0331;0,6620;-0,7526;-1,0934;-1,5430;
7,624909;0,0498;0,3577;1,1766;0,0165;-0,1617;1,4810;-0,7526;-1,0934;-1,5430;
7,638380;0,0498;0,3577;1,1766;0,0186;-0,5103;2,6874;-0,7526;-1,0934;-1,5430;
7,662779;0,0498;0,3577;1,1766;-0,1362;-0,5412;2,8483;-0,7526;-1,0934;-1,5430;
7,672212;0,0498;0,3577;1,1766;-0,1362;-0,5412;2,8483;0,4557;-1,3647;-1,6383;
7,680180;0,0498;0,3577;1,1766;-0,5870;-0,4099;1,3821;0,4557;-1,3647;-1,6383;
7,684114;-0,0625;0,3723;0,8717;-0,5870;-0,4099;1,3821;0,4557;-1,3647;-1,6383;
7,697009;-0,0625;0,3723;0,8717;-1,1458;-0,3382;-0,0780;0,4557;-1,3647;-1,6383;
7,717079;-0,0625;0,3723;0,8717;-1,7852;-0,5819;-0,4881;0,4557;-1,3647;-1,6383;
7,727118;-0,0625;0,3723;0,8717;-1,7852;-0,5819;-0,4881;0,0476;-2,0757;-1,7947;
7,737279;-0,0625;0,3723;0,8717;-1,5233;-0,6631;-0,2830;0,0476;-2,0757;-1,7947;
7,747073;0,0068;0,3323;0,9733;-1,5233;-0,6631;-0,2830;0,0476;-2,0757;-1,7947;
7,757261;0,0068;0,3323;0,9733;-1,1505;-0,8704;0,4680;0,0476;-2,0757;-1,7947;
7,777160;0,0068;0,3323;0,9733;-1,2353;-0,7544;1,1317;0,0476;-2,0757;-1,7947;
7,792356;0,0068;0,3323;0,9733;-1,2353;-0,7544;1,1317;-0,2908;-1,8228;-2,2651;
7,797566;0,0068;0,3323;0,9733;-1,4459;0,1083;-0,2763;-0,2908;-1,8228;-2,2651;
7,812366;0,0645;0,3528;1,0877;-1,4459;0,1083;-0,2763;-0,2908;-1,8228;-2,2651;
7,817291;0,0645;0,3528;1,0877;-0,4021;-0,3190;-0,6366;-0,2908;-1,8228;-2,2651;
7,838246;0,0645;0,3528;1,0877;-1,2251;-1,1416;2,9888;-0,2908;-1,8228;-2,2651;
7,860830;0,0645;0,3528;1,0877;-2,4294;-1,7050;3,2410;-0,2908;-1,8228;-2,2651;
7,874055;0,0645;0,3528;1,0877;-2,4294;-1,7050;3,2410;-0,3372;1,1057;-1,8118;
7,878919;-0,3049;0,4104;0,6039;-2,4294;-1,7050;3,2410;-0,3372;1,1057;-1,8118;
7,882430;-0,3049;0,4104;0,6039;-3,2898;-1,1666;-0,3453;-0,3372;1,1057;-1,8118;
7,898728;-0,3049;0,4104;0,6039;-3,4528;-0,1930;-2,8266;-0,3372;1,1057;-1,8118;
7,918381;-0,3049;0,4104;0,6039;-3,6484;0,4524;-2,8193;-0,3372;1,1057;-1,8118;
7,923157;-0,3049;0,4104;0,6039;-3,6484;0,4524;-2,8193;-0,2566;-1,0116;-0,8772;
7,938274;-0,3049;0,4104;0,6039;-2,5519;0,1549;-0,9026;-0,2566;-1,0116;-0,8772;
7,945679;-0,0029;0,4769;1,0476;-2,5519;0,1549;-0,9026;-0,2566;-1,0116;-0,8772;
7,959305;-0,0029;0,4769;1,0476;-0,6614;0,5001;0,9819;-0,2566;-1,0116;-0,8772;
7,978618;-0,0029;0,4769;1,0476;1,2227;0,8390;2,4016;-0,2566;-1,0116;-0,8772;
7,989617;-0,0029;0,4769;1,0476;1,2227;0,8390;2,4016;-0,0990;0,3726;-0,7831;
7,998125;-0,0029;0,4769;1,0476;1,8723;0,9427;1,9060;-0,0990;0,3726;-0,7831;
8,008446;0,1349;0,4759;0,8346;1,8723;0,9427;1,9060;-0,0990;0,3726;-0,7831;
8,017297;0,1349;0,4759;0,8346;1,3978;0,7938;-0,1248;-0,0990;0,3726;-0,7831;
8,037409;0,1349;0,4759;0,8346;0,9673;0,6798;-0,7053;-0,0990;0,3726;-0,7831;
8,053989;0,1349;0,4759;0,8346;0,9673;0,6798;-0,7053;0,1613;-0,2578;-0,6634;
8,057027;0,1349;0,4759;0,8346;0,8697;0,5303;-0,6475;0,1613;-0,2578;-0,6634;
8,071862;0,1397;0,5170;0,7222;0,8697;0,5303;-0,6475;0,1613;-0,2578;-0,6634;
8,077171;0,1397;0,5170;0,7222;0,9412;0,8361;-1,3498;0,1613;-0,2578;-0,6634;
8,097231;0,1397;0,5170;0,7222;1,1249;0,9550;-1,7800;0,1613;-0,2578;-0,6634;
8,117251;0,1397;0,5170;0,7222;1,0056;1,0710;-1,7049;0,1613;-0,2578;-0,6634;
8,121370;0,1397;0,5170;0,7222;1,0056;1,0710;-1,7049;-0,0159;-0,7685;-0,7782;
8,137587;0,0313;0,4613;0,8258;1,0056;1,0710;-1,7049;-0,0159;-0,7685;-0,7782;
8,147135;0,0313;0,4613;0,8258;0,3859;0,5346;-1,1063;-0,0159;-0,7685;-0,7782;
8,157051;0,0313;0,4613;0,8258;-0,1673;0,2677;-0,6353;-0,0159;-0,7685;-0,7782;
8,177261;0,0313;0,4613;0,8258;0,0939;0,3687;-0,2148;-0,0159;-0,7685;-0,7782;
8,181931;0,0313;0,4613;0,8258;0,0939;0,3687;-0,2148;0,1576;-0,6720;-0,5009;
8,197047;0,0313;0,4613;0,8258;0,1389;0,6188;0,3104;0,1576;-0,6720;-0,5009;
8,202277;0,0215;0,4994;0,8482;0,1389;0,6188;0,3104;0,1576;-0,6720;-0,5009;
8,219075;0,0215;0,4994;0,8482;-0,3251;0,5646;-0,1636;0,1576;-0,6720;-0,5009;
8,237243;0,0215;0,4994;0,8482;-1,0545;0,6087;-1,0511;0,1576;-0,6720;-0,5009;
8,247559;0,0215;0,4994;0,8482;-1,0545;0,6087;-1,0511;-0,0611;-0,6390;-0,0501;
8,257531;0,0215;0,4994;0,8482;-1,2387;0,6031;-1,5571;-0,0611;-0,6390;-0,0501;
8,269494;0,0029;0,5746;0,7300;-1,2387;0,6031;-1,5571;-0,0611;-0,6390;-0,0501;
8,277773;0,0029;0,5746;0,7300;-1,0737;1,0273;-1,5124;-0,0611;-0,6390;-0,0501;
8,298164;0,0029;0,5746;0,7300;-0,8524;1,1480;-1,1233;-0,0611;-0,6390;-0,0501;
8,313058;0,0029;0,5746;0,7300;-0,8524;1,1480;-1,1233;-0,1808;-0,4899;-0,0843;
8,321135;0,0029;0,5746;0,7300;-0,5805;1,3257;-0,0915;-0,1808;-0,4899;-0,0843;
8,338687;0,0137;0,5502;0,9372;-0,5805;1,3257;-0,0915;-0,1808;-0,4899;-0,0843;
8,347295;0,0137;0,5502;0,9372;-0,7786;1,1042;0,6585;-0,1808;-0,4899;-0,0843;
8,358675;0,0137;0,5502;0,9372;-1,2088;0,8580;0,6194;-0,1808;-0,4899;-0,0843;
8,377202;0,0137;0,5502;0,9372;-1,1111;0,9356;0,6510;-0,1808;-0,4899;-0,0843;
8,380602;0,0137;0,5502;0,9372;-1,1111;0,9356;0,6510;0,2517;0,2236;0,0171;
8,397022;0,1564;0,6391;0,9870;-1,1111;0,9356;0,6510;0,2517;0,2236;0,0171;
8,400536;0,1564;0,6391;0,9870;-0,2535;1,4520;1,3226;0,2517;0,2236;0,0171;
8,417189;0,1564;0,6391;0,9870;0,2276;1,6688;1,2062;0,2517;0,2236;0,0171;
8,437114;0,1564;0,6391;0,9870;-0,2202;1,6075;0,4518;0,2517;0,2236;0,0171;
8,441942;0,1564;0,6391;0,9870;-0,2202;1,6075;0,4518;-0,8296;1,7287;-0,5999;
8,457553;0,1564;0,6391;0,9870;-0,7148;1,0882;-0,0683;-0,8296;1,7287;-0,5999;
8,462534;-0,0948;0,5082;0,8433;-0,7148;1,0882;-0,0683;-0,8296;1,7287;-0,5999;
8,477712;-0,0948;0,5082;0,8433;-1,2771;0,6461;-0,3673;-0,8296;1,7287;-0,5999;
8,498177;-0,0948;0,5082;0,8433;-1,4150;0,4789;-0,4101;-0,8296;1,7287;-0,5999;
8,508386;-0,0948;0,5082;0,8433;-1,4150;0,4789;-0,4101;0,2187;0,7428;0,1539;
8,519125;-0,0948;0,5082;0,8433;-1,1728;0,6140;-0,6290;0,2187;0,7428;0,1539;
8,531616;-0,0704;0,5111;0,8072;-1,1728;0,6140;-0,6290;0,2187;0,7428;0,1539;
8,541938;-0,0704;0,5111;0,8072;-0,6302;0,6491;-0,5805;0,2187;0,7428;0,1539;
8,557012;-0,0704;0,5111;0,8072;-0,2561;0,6587;-1,2365;0,2187;0,7428;0,1539;
8,572135;-0,0704;0,5111;0,8072;-0,2561;0,6587;-1,2365;0,6487;0,1894;0,4215;
8,577149;-0,0704;0,5111;0,8072;-0,1206;0,4528;-2,4055;0,6487;0,1894;0,4215;
8,592041;0,0098;0,5746;0,6626;-0,1206;0,4528;-2,4055;0,6487;0,1894;0,4215;
8,597748;0,0098;0,5746;0,6626;0,1793;0,6270;-2,7623;0,6487;0,1894;0,4215;
8,617029;0,0098;0,5746;0,6626;0,5005;0,7434;-1,5695;0,6487;0,1894;0,4215;
8,637119;0,0098;0,5746;0,6626;0,7370;0,6952;-0,9814;0,6487;0,1894;0,4215;
8,641289;0,0098;0,5746;0,6626;0,7370;0,6952;-0,9814;0,8638;0,1344;0,3922;
8,657145;0,0909;0,5727;0,6176;0,7370;0,6952;-0,9814;0,8638;0,1344;0,3922;
8,662298;0,0909;0,5727;0,6176;0,8595;0,5932;-1,6656;0,8638;0,1344;0,3922;
8,677710;0,0909;0,5727;0,6176;0,9349;0,2674;-2,0627;0,8638;0,1344;0,3922;
8,698159;0,0909;0,5727;0,6176;1,0361;-0,1248;-1,2450;0,8638;0,1344;0,3922;
8,704760;0,0909;0,5727;0,6176;1,0361;-0,1248;-1,2450;0,6060;0,7282;0,2724;
8,718330;0,0909;0,5727;0,6176;1,6188;-0,2543;-0,6242;0,6060;0,7282;0,2724;
8,730554;0,0909;0,5570;0,6303;1,6188;-0,2543;-0,6242;0,6060;0,7282;0,2724;
8,742612;0,0909;0,5570;0,6303;1,0114;-0,1823;-1,4807;0,6060;0,7282;0,2724;
8,756861;0,0909;0,5570;0,6303;0,3124;-0,5205;-1,9868;0,6060;0,7282;0,2724;
8,767121;0,0909;0,5570;0,6303;0,3124;-0,5205;-1,9868;0,1344;0,2309;0,3115;
8,778604;0,0909;0,5570;0,6303;0,3584;-0,5860;-1,2322;0,1344;0,2309;0,3115;
8,786883;0,1681;0,6020;0,8473;0,3584;-0,5860;-1,2322;0,1344;0,2309;0,3115;
8,797128;0,1681;0,6020;0,8473;1,2581;-0,2276;0,0630;0,1344;0,2309;0,3115;
8,817358;0,1681;0,6020;0,8473;1,5243;0,3479;1,0979;0,1344;0,2309;0,3115;
8,832244;0,1681;0,6020;0,8473;1,5243;0,3479;1,0979;0,3299;0,9591;0,0452;
8,837345;0,1681;0,6020;0,8473;1,1561;0,3502;0,6765;0,3299;0,9591;0,0452;
8,852064;0,0860;0,5854;0,6938;1,1561;0,3502;0,6765;0,3299;0,9591;0,0452;
8,857037;0,0860;0,5854;0,6938;1,3768;0,0356;-1,0402;0,3299;0,9591;0,0452;
8,877633;0,0860;0,5854;0,6938;0,6379;-0,3584;-0,6521;0,3299;0,9591;0,0452;
8,897524;0,0860;0,5854;0,6938;-0,4056;-0,6521;0,1834;0,3299;0,9591;0,0452;
8,902360;0,0860;0,5854;0,6938;-0,4056;-0,6521;0,1834;0,3775;-0,8271;-0,0733;
8,918522;-0,1143;0,5854;0,8111;-0,4056;-0,6521;0,1834;0,3775;-0,8271;-0,0733;
8,926001;-0,1143;0,5854;0,8111;-1,2885;-0,3519;0,5377;0,3775;-0,8271;-0,0733;
8,938629;-0,1143;0,5854;0,8111;-1,0841;-0,3222;0,3426;0,3775;-0,8271;-0,0733;
8,958367;-0,1143;0,5854;0,8111;-0,5467;-0,4286;1,0793;0,3775;-0,8271;-0,0733;
8,969814;-0,1143;0,5854;0,8111;-0,5467;-0,4286;1,0793;-0,7526;-1,4062;-0,3995;
8,982424;-0,1143;0,5854;0,8111;-0,0948;-0,6547;2,6257;-0,7526;-1,4062;-0,3995;
8,994960;0,0322;0,4446;1,2401;-0,0948;-0,6547;2,6257;-0,7526;-1,4062;-0,3995;
8,997053;0,0322;0,4446;1,2401;-0,0494;-1,2793;4,1031;-0,7526;-1,4062;-0,3995;
9,017214;0,0322;0,4446;1,2401;-0,7156;-1,9296;4,7443;-0,7526;-1,4062;-0,3995;
9,027388;0,0322;0,4446;1,2401;-0,7156;-1,9296;4,7443;-0,6255;-0,1955;-0,0147;
9,037171;0,0322;0,4446;1,2401;-2,0194;-2,6249;4,3034;-0,6255;-0,1955;-0,0147;
9,047379;-0,1544;0,3108;1,1170;-2,0194;-2,6249;4,3034;-0,6255;-0,1955;-0,0147;
9,058775;-0,1544;0,3108;1,1170;-2,2080;-2,2855;3,1065;-0,6255;-0,1955;-0,0147;
9,077159;-0,1544;0,3108;1,1170;-1,5701;-1,8645;2,3158;-0,6255;-0,1955;-0,0147;
9,092156;-0,1544;0,3108;1,1170;-1,5701;-1,8645;2,3158;-0,5266;-0,1820;-0,0892;
9,097008;-0,1544;0,3108;1,1170;-0,8463;-1,3900;1,5527;-0,5266;-0,1820;-0,0892;
9,111841;-0,0752;0,3196;0,9469;-0,8463;-1,3900;1,5527;-0,5266;-0,1820;-0,0892;
9,117129;-0,0752;0,3196;0,9469;-1,0512;-1,4675;0,9651;-0,5266;-0,1820;-0,0892;
9,137061;-0,0752;0,3196;0,9469;-1,2138;-1,4913;0,7282;-0,5266;-0,1820;-0,0892;
9,157040;-0,0752;0,3196;0,9469;-0,7629;-1,2566;0,1720;-0,5266;-0,1820;-0,0892;
9,159985;-0,0752;0,3196;0,9469;-0,7629;-1,2566;0,1720;-0,6133;-0,1173;-0,2957;
9,177035;-0,0107;0,3342;0,8854;-0,7629;-1,2566;0,1720;-0,6133;-0,1173;-0,2957;
9,180406;-0,0107;0,3342;0,8854;-0,6143;-0,9110;-0,3531;-0,6133;-0,1173;-0,2957;
9,197560;-0,0107;0,3342;0,8854;-0,5072;-1,0107;-0,0437;-0,6133;-0,1173;-0,2957;
9,217480;-0,0107;0,3342;0,8854;-0,7390;-1,1414;0,4590;-0,6133;-0,1173;-0,2957;
9,223148;-0,0107;0,3342;0,8854;-0,7390;-1,1414;0,4590;-0,1894;0,3506;-0,2285;
9,238301;-0,0107;0,3342;0,8854;-0,7238;-1,0352;0,4273;-0,1894;0,3506;-0,2285;
9,245283;-0,0498;0,3528;0,8756;-0,7238;-1,0352;0,4273;-0,1894;0,3506;-0,2285;
9,259491;-0,0498;0,3528;0,8756;-0,6633;-0,5898;-0,1087;-0,1894;0,3506;-0,2285;
9,278563;-0,0498;0,3528;0,8756;-0,9007;-0,2700;-0,7501;-0,1894;0,3506;-0,2285;
9,291547;-0,0498;0,3528;0,8756;-0,9007;-0,2700;-0,7501;-0,2431;-0,0929;-0,2627;
9,301437;-0,0498;0,3528;0,8756;-1,0385;-0,4286;-0,9306;-0,2431;-0,0929;-0,2627;
9,311503;-0,0479;0,3293;0,9655;-1,0385;-0,4286;-0,9306;-0,2431;-0,0929;-0,2627;
9,318332;-0,0479;0,3293;0,9655;-0,6828;-0,5739;-0,0812;-0,2431;-0,0929;-0,2627;
9,338523;-0,0479;0,3293;0,9655;-0,1098;-0,6346;1,0358;-0,2431;-0,0929;-0,2627;
9,353324;-0,0479;0,3293;0,9655;-0,1098;-0,6346;1,0358;-0,3238;0,1503;-0,3213;
9,358871;-0,0479;0,3293;0,9655;0,0686;-0,7443;1,5414;-0,3238;0,1503;-0,3213;
9,373370;-0,0391;0,2834;1,0026;0,0686;-0,7443;1,5414;-0,3238;0,1503;-0,3213;
9,382085;-0,0391;0,2834;1,0026;-0,1130;-0,7745;1,1823;-0,3238;0,1503;-0,3213;
9,398347;-0,0391;0,2834;1,0026;-0,2059;-0,7133;0,5804;-0,3238;0,1503;-0,3213;
9,418774;-0,0391;0,2834;1,0026;0,1953;-0,2894;-0,2761;-0,3238;0,1503;-0,3213;
9,426048;-0,0391;0,2834;1,0026;0,1953;-0,2894;-0,2761;-0,2382;-0,0965;-0,2382;
9,441376;0,1222;0,3968;0,8003;0,1953;-0,2894;-0,2761;-0,2382;-0,0965;-0,2382;
9,448957;0,1222;0,3968;0,8003;0,8104;0,1526;-0,9674;-0,2382;-0,0965;-0,2382;
9,460362;0,1222;0,3968;0,8003;1,2912;0,4329;-1,2448;-0,2382;-0,0965;-0,2382;
9,477442;0,1222;0,3968;0,8003;2,1055;0,8415;-1,3613;-0,2382;-0,0965;-0,2382;
9,482238;0,1222;0,3968;0,8003;2,1055;0,8415;-1,3613;-0,8955;-0,7611;-1,0641;
9,497010;0,1222;0,3968;0,8003;0,6279;1,2437;0,1601;-0,8955;-0,7611;-1,0641;
9,502953;-0,0821;0,3274;1,2049;0,6279;1,2437;0,1601;-0,8955;-0,7611;-1,0641;
9,516993;-0,0821;0,3274;1,2049;-0,8070;0,5239;2,1286;-0,8955;-0,7611;-1,0641;
9,537111;-0,0821;0,3274;1,2049;-0,4658;-0,8254;3,4586;-0,8955;-0,7611;-1,0641;
9,547277;-0,0821;0,3274;1,2049;-0,4658;-0,8254;3,4586;0,4386;-0,1161;-0,5730;
9,557479;-0,0821;0,3274;1,2049;-0,6408;-1,0424;3,3851;0,4386;-0,1161;-0,5730;
9,566883;-0,1456;0,2414;1,1219;-0,6408;-1,0424;3,3851;0,4386;-0,1161;-0,5730;
9,577251;-0,1456;0,2414;1,1219;-1,3903;-0,6650;2,3180;0,4386;-0,1161;-0,5730;
9,597040;-0,1456;0,2414;1,1219;-1,1982;-0,4141;1,1243;0,4386;-0,1161;-0,5730;
9,611981;-0,1456;0,2414;1,1219;-1,1982;-0,4141;1,1243;0,5241;-0,2920;-0,2737;
9,618354;-0,1456;0,2414;1,1219;-0,8868;-0,0033;-0,0657;0,5241;-0,2920;-0,2737;
9,631945;-0,1407;0,3293;0,8365;-0,8868;-0,0033;-0,0657;0,5241;-0,2920;-0,2737;
9,636865;-0,1407;0,3293;0,8365;-1,2517;0,0301;-0,7916;0,5241;-0,2920;-0,2737;
9,657095;-0,1407;0,3293;0,8365;-1,2757;-0,0528;-0,8038;0,5241;-0,2920;-0,2737;
9,677281;-0,1407;0,3293;0,8365;-0,9524;0,1569;0,0845;0,5241;-0,2920;-0,2737;
9,680082;-0,1407;0,3293;0,8365;-0,9524;0,1569;0,0845;-0,0464;-0,4227;-0,2419;
9,697317;-0,1114;0,3371;1,0593;-0,9524;0,1569;0,0845;-0,0464;-0,4227;-0,2419;
9,701550;-0,1114;0,3371;1,0593;-0,8765;0,2127;0,6938;-0,0464;-0,4227;-0,2419;
9,718531;-0,1114;0,3371;1,0593;-1,2715;-0,0220;1,2468;-0,0464;-0,4227;-0,2419;
9,737572;-0,1114;0,3371;1,0593;-1,2054;-0,0031;1,5274;-0,0464;-0,4227;-0,2419;
9,744291;-0,1114;0,3371;1,0593;-1,2054;-0,0031;1,5274;0,4875;-0,2981;-0,0501;
9,758652;-0,1114;0,3371;1,0593;-0,7056;0,2570;1,5159;0,4875;-0,2981;-0,0501;
9,766267;-0,0244;0,4046;1,0388;-0,7056;0,2570;1,5159;0,4875;-0,2981;-0,0501;
9,778518;-0,0244;0,4046;1,0388;-0,5203;0,4406;1,1288;0,4875;-0,2981;-0,0501;
9,798240;-0,0244;0,4046;1,0388;-0,5213;0,3597;0,8687;0,4875;-0,2981;-0,0501;
9,808474;-0,0244;0,4046;1,0388;-0,5213;0,3597;0,8687;0,4117;-0,1735;-0,1246;
9,820737;-0,0244;0,4046;1,0388;-0,3684;0,3149;0,5432;0,4117;-0,1735;-0,1246;
9,829410;0,0332;0,4251;0,9782;-0,3684;0,3149;0,5432;0,4117;-0,1735;-0,1246;
9,839290;0,0332;0,4251;0,9782;-0,1677;0,4146;0,5402;0,4117;-0,1735;-0,1246;
9,857050;0,0332;0,4251;0,9782;-0,0032;0,3833;0,8354;0,4117;-0,1735;-0,1246;
9,872082;0,0332;0,4251;0,9782;-0,0032;0,3833;0,8354;0,6610;-0,4862;-0,2199;
9,877174;0,0332;0,4251;0,9782;0,0513;0,2405;0,7314;0,6610;-0,4862;-0,2199;
9,892215;0,1007;0,4398;0,9762;0,0513;0,2405;0,7314;0,6610;-0,4862;-0,2199;
9,899386;0,1007;0,4398;0,9762;0,1893;0,2880;0,6556;0,6610;-0,4862;-0,2199;
9,917053;0,1007;0,4398;0,9762;0,4476;0,1627;0,7514;0,6610;-0,4862;-0,2199;
9,937016;0,1007;0,4398;0,9762;0,2036;-0,2122;0,6166;0,6610;-0,4862;-0,2199;
9,940207;0,1007;0,4398;0,9762;0,2036;-0,2122;0,6166;0,3983;-0,4520;-0,2211;
9,957229;0,0557;0,3792;0,8609;0,2036;-0,2122;0,6166;0,3983;-0,4520;-0,2211;
9,960841;0,0557;0,3792;0,8609;-0,0671;-0,5818;0,1993;0,3983;-0,4520;-0,2211;
9,977622;0,0557;0,3792;0,8609;-0,1772;-0,5782;-0,2548;0,3983;-0,4520;-0,2211;
9,999326;0,0557;0,3792;0,8609;-0,3723;-0,4159;-0,5763;0,3983;-0,4520;-0,2211;
10,008530;0,0557;0,3792;0,8609;-0,3723;-0,4159;-0,5763;0,3506;-0,2407;-0,2346;
10,018718;0,0557;0,3792;0,8609;-0,3251;-0,1819;-0,6554;0,3506;-0,2407;-0,2346;
10,029124;0,0430;0,4515;0,7104;-0,3251;-0,1819;-0,6554;0,3506;-0,2407;-0,2346;
10,038938;0,0430;0,4515;0,7104;-0,4475;-0,0347;-1,4216;0,3506;-0,2407;-0,2346;
10,057608;0,0430;0,4515;0,7104;-0,5692;-0,2143;-1,5922;0,3506;-0,2407;-0,2346;
10,067172;0,0430;0,4515;0,7104;-0,5692;-0,2143;-1,5922;-0,6622;-0,3751;0,0513;
10,077199;0,0430;0,4515;0,7104;-1,4500;-0,1860;-0,7480;-0,6622;-0,3751;0,0513;
10,086827;0,0127;0,4378;0,9147;-1,4500;-0,1860;-0,7480;-0,6622;-0,3751;0,0513;
10,096751;0,0127;0,4378;0,9147;-0,9760;-0,3144;0,0662;-0,6622;-0,3751;0,0513;
10,116708;0,0127;0,4378;0,9147;-0,4106;0,2380;0,5847;-0,6622;-0,3751;0,0513;
10,132013;0,0127;0,4378;0,9147;-0,4106;0,2380;0,5847;0,3152;0,0183;0,3250;
10,136661;0,0127;0,4378;0,9147;0,0375;0,4556;0,5444;0,3152;0,0183;0,3250;
10,151566;0,0889;0,4495;0,7857;0,0375;0,4556;0,5444;0,3152;0,0183;0,3250;
10,156646;0,0889;0,4495;0,7857;-0,2348;0,1360;-0,3048;0,3152;0,0183;0,3250;
10,176825;0,0889;0,4495;0,7857;0,0715;0,1137;-1,1316;0,3152;0,0183;0,3250;
10,196818;0,0889;0,4495;0,7857;1,0387;0,5103;-1,6957;0,3152;0,0183;0,3250;
10,199141;0,0889;0,4495;0,7857;1,0387;0,5103;-1,6957;0,9016;-0,4826;-0,2272;
10,216828;0,2306;0,5424;0,6078;1,0387;0,5103;-1,6957;0,9016;-0,4826;-0,2272;
10,218853;0,2306;0,5424;0,6078;1,4673;0,6857;-2,0576;0,9016;-0,4826;-0,2272;
10,237050;0,2306;0,5424;0,6078;0,8379;0,3560;-2,2852;0,9016;-0,4826;-0,2272;
10,257218;0,2306;0,5424;0,6078;-0,1841;-0,5095;-2,2129;0,9016;-0,4826;-0,2272;
10,262412;0,2306;0,5424;0,6078;-0,1841;-0,5095;-2,2129;-0,3763;-0,4386;-0,4801;
10,277375;0,2306;0,5424;0,6078;-1,0031;-0,8941;-1,7327;-0,3763;-0,4386;-0,4801;
10,281960;0,0489;0,4446;0,7300;-1,0031;-0,8941;-1,7327;-0,3763;-0,4386;-0,4801;
10,298325;0,0489;0,4446;0,7300;-0,9815;-0,7978;-1,1185;-0,3763;-0,4386;-0,4801;
10,317663;0,0489;0,4446;0,7300;-0,9663;-0,4687;-1,0994;-0,3763;-0,4386;-0,4801;
10,328840;0,0489;0,4446;0,7300;-0,9663;-0,4687;-1,0994;-0,8894;0,3323;-0,4410;
10,338201;0,0489;0,4446;0,7300;-0,6059;-0,2010;-1,7855;-0,8894;0,3323;-0,4410;
10,349475;0,1007;0,4945;0,6332;-0,6059;-0,2010;-1,7855;-0,8894;0,3323;-0,4410;
10,361398;0,1007;0,4945;0,6332;-0,2654;-0,0321;-2,1674;-0,8894;0,3323;-0,4410;
10,378588;0,1007;0,4945;0,6332;-0,4820;-0,0114;-1,8179;-0,8894;0,3323;-0,4410;
10,397713;0,1007;0,4945;0,6332;-0,4820;-0,0114;-1,8179;-1,5101;0,5974;-0,6170;
10,405994;0,1007;0,4945;0,6332;-0,6755;-0,2074;-1,4206;-1,5101;0,5974;-0,6170;
10,413135;0,0743;0,4319;0,8394;-0,6755;-0,2074;-1,4206;-1,5101;0,5974;-0,6170;
10,421576;0,0743;0,4319;0,8394;-0,5799;-0,2808;-1,0442;-1,5101;0,5974;-0,6170;
10,437041;0,0743;0,4319;0,8394;0,0374;0,2587;-0,4463;-1,5101;0,5974;-0,6170;
10,457589;0,0743;0,4319;0,8394;0,4945;0,5335;-0,4065;-1,5101;0,5974;-0,6170;
10,460607;0,0743;0,4319;0,8394;0,4945;0,5335;-0,4065;-1,6469;0,9908;-0,5473;
10,477185;0,0997;0,4485;0,8277;0,4945;0,5335;-0,4065;-1,6469;0,9908;-0,5473;
10,480073;0,0997;0,4485;0,8277;0,4770;0,6748;-0,9103;-1,6469;0,9908;-0,5473;
10,497036;0,0997;0,4485;0,8277;0,6751;1,0493;-1,0056;-1,6469;0,9908;-0,5473;
10,517458;0,0997;0,4485;0,8277;1,0614;1,6092;1,0690;-1,6469;0,9908;-0,5473;
10,522197;0,0997;0,4485;0,8277;1,0614;1,6092;1,0690;-0,3018;-0,3702;-0,5999;
10,537208;0,0997;0,4485;0,8277;1,1255;1,3375;2,0069;-0,3018;-0,3702;-0,5999;
10,541914;0,1036;0,4378;1,2020;1,1255;1,3375;2,0069;-0,3018;-0,3702;-0,5999;
10,557500;0,1036;0,4378;1,2020;0,8037;1,5125;2,5109;-0,3018;-0,3702;-0,5999;
10,577781;0,1036;0,4378;1,2020;0,5201;1,3522;2,0929;-0,3018;-0,3702;-0,5999;
10,587784;0,1036;0,4378;1,2020;0,5201;1,3522;2,0929;1,4649;-0,5229;-0,6805;
10,598527;0,1036;0,4378;1,2020;0,4428;1,1795;0,9137;1,4649;-0,5229;-0,6805;
10,609704;0,0655;0,4388;0,9118;0,4428;1,1795;0,9137;1,4649;-0,5229;-0,6805;
10,619353;0,0655;0,4388;0,9118;0,2006;1,0465;0,1860;1,4649;-0,5229;-0,6805;
10,637993;0,0655;0,4388;0,9118;0,0938;0,4776;-0,1873;1,4649;-0,5229;-0,6805;
10,653706;0,0655;0,4388;0,9118;0,0938;0,4776;-0,1873;0,5705;-0,2272;-0,7135;
10,662334;0,0655;0,4388;0,9118;-0,1130;0,2376;-0,0993;0,5705;-0,2272;-0,7135;
10,676576;0,0068;0,3938;0,9147;-0,1130;0,2376;-0,0993;0,5705;-0,2272;-0,7135;
10,683796;0,0068;0,3938;0,9147;-0,4055;-0,0146;0,0055;0,5705;-0,2272;-0,7135;
10,698310;0,0068;0,3938;0,9147;-0,4130;-0,3116;0,1083;0,5705;-0,2272;-0,7135;
10,718752;0,0068;0,3938;0,9147;-0,2582;-0,1797;-0,3539;0,5705;-0,2272;-0,7135;
10,727320;0,0068;0,3938;0,9147;-0,2582;-0,1797;-0,3539;0,6683;-0,2150;-0,4154;
10,742975;0,0577;0,4798;0,7828;-0,2582;-0,1797;-0,3539;0,6683;-0,2150;-0,4154;
10,751444;0,0577;0,4798;0,7828;0,1055;0,1628;-0,6737;0,6683;-0,2150;-0,4154;
10,765385;0,0577;0,4798;0,7828;0,1246;0,2306;-0,9467;0,6683;-0,2150;-0,4154;
10,778341;0,0577;0,4798;0,7828;0,0100;0,1070;-1,1791;0,6683;-0,2150;-0,4154;
10,784040;0,0577;0,4798;0,7828;0,0100;0,1070;-1,1791;0,3348;-0,0562;-0,3030;
10,797021;0,0577;0,4798;0,7828;0,1132;0,3110;-1,3260;0,3348;-0,0562;-0,3030;
10,801897;0,0909;0,5600;0,7183;0,1132;0,3110;-1,3260;0,3348;-0,0562;-0,3030;
10,816968;0,0909;0,5600;0,7183;0,4251;0,5558;-1,3486;0,3348;-0,0562;-0,3030;
10,837065;0,0909;0,5600;0,7183;0,2613;0,7083;-1,2171;0,3348;-0,0562;-0,3030;
10,847168;0,0909;0,5600;0,7183;0,2613;0,7083;-1,2171;0,3067;0,0648;-0,3262;
10,857053;0,0909;0,5600;0,7183;0,1819;0,5663;-0,8330;0,3067;0,0648;-0,3262;
10,866708;0,0596;0,5990;0,7319;0,1819;0,5663;-0,8330;0,3067;0,0648;-0,3262;
10,877306;0,0596;0,5990;0,7319;0,2671;0,6190;-0,9152;0,3067;0,0648;-0,3262;
10,897166;0,0596;0,5990;0,7319;0,1426;0,7546;-1,2825;0,3067;0,0648;-0,3262;
10,912124;0,0596;0,5990;0,7319;0,1426;0,7546;-1,2825;0,3787;-0,3299;-0,3763;
10,917047;0,0596;0,5990;0,7319;-0,3169;0,4757;-1,1356;0,3787;-0,3299;-0,3763;
10,932020;-0,1085;0,5766;0,8785;-0,3169;0,4757;-1,1356;0,3787;-0,3299;-0,3763;
10,936858;-0,1085;0,5766;0,8785;-0,8120;0,1416;0,2836;0,3787;-0,3299;-0,3763;
10,957005;-0,1085;0,5766;0,8785;-1,3443;0,2794;0,4853;0,3787;-0,3299;-0,3763;
10,977303;-0,1085;0,5766;0,8785;-0,7332;-0,0818;-0,2188;0,3787;-0,3299;-0,3763;
10,983386;-0,1085;0,5766;0,8785;-0,7332;-0,0818;-0,2188;0,3775;-0,6536;-0,4117;
10,997594;-0,0303;0,4984;0,9977;-0,7332;-0,0818;-0,2188;0,3775;-0,6536;-0,4117;
11,002423;-0,0303;0,4984;0,9977;-0,3523;-0,3307;-0,1825;0,3775;-0,6536;-0,4117;
11,017994;-0,0303;0,4984;0,9977;-0,4848;-0,7138;1,8400;0,3775;-0,6536;-0,4117;
11,037729;-0,0303;0,4984;0,9977;-1,4858;-1,3249;3,6414;0,3775;-0,6536;-0,4117;
11,046247;-0,0303;0,4984;0,9977;-1,4858;-1,3249;3,6414;0,0147;0,1466;-0,0696;
11,059413;-0,0303;0,4984;0,9977;-2,0001;-1,6114;3,1617;0,0147;0,1466;-0,0696;
11,072394;-0,1319;0,4652;0,9860;-2,0001;-1,6114;3,1617;0,0147;0,1466;-0,0696;
11,083696;-0,1319;0,4652;0,9860;-1,5680;-1,0246;1,7896;0,0147;0,1466;-0,0696;
11,096962;-0,1319;0,4652;0,9860;-0,7291;-0,4076;1,4535;0,0147;0,1466;-0,0696;
11,109686;-0,1319;0,4652;0,9860;-0,7291;-0,4076;1,4535;-0,2724;0,0916;-0,0134;
11,117298;-0,1319;0,4652;0,9860;-0,5288;-0,4573;1,9874;-0,2724;0,0916;-0,0134;
11,126811;-0,1378;0,4837;0,9919;-0,5288;-0,4573;1,9874;-0,2724;0,0916;-0,0134;
11,136720;-0,1378;0,4837;0,9919;-0,9837;-0,3946;1,8451;-0,2724;0,0916;-0,0134;
11,156749;-0,1378;0,4837;0,9919;-1,6266;-0,3211;1,0650;-0,2724;0,0916;-0,0134;
11,171917;-0,1378;0,4837;0,9919;-1,6266;-0,3211;1,0650;0,2162;0,1283;0,1124;
11,176773;-0,1378;0,4837;0,9919;-1,9164;-0,4609;-0,1273;0,2162;0,1283;0,1124;
11,191773;-0,2717;0,5042;0,7740;-1,9164;-0,4609;-0,1273;0,2162;0,1283;0,1124;
11,196645;-0,2717;0,5042;0,7740;-2,0266;-0,3988;-0,7610;0,2162;0,1283;0,1124;
11,216993;-0,2717;0,5042;0,7740;-2,1988;-0,2535;-0,3168;0,2162;0,1283;0,1124;
11,236694;-0,2717;0,5042;0,7740;-1,9142;-0,8500;1,3127;0,2162;0,1283;0,1124;
11,239734;-0,2717;0,5042;0,7740;-1,9142;-0,8500;1,3127;0,1429;0,2016;0,1173;
11,256698;-0,2160;0,3889;1,0007;-1,9142;-0,8500;1,3127;0,1429;0,2016;0,1173;
11,259472;-0,2160;0,3889;1,0007;-1,7075;-1,2306;2,0675;0,1429;0,2016;0,1173;
11,277196;-0,2160;0,3889;1,0007;-1,5796;-1,2798;1,5463;0,1429;0,2016;0,1173;
11,297184;-0,2160;0,3889;1,0007;-1,1631;-1,1988;1,2376;0,1429;0,2016;0,1173;
11,302101;-0,2160;0,3889;1,0007;-1,1631;-1,1988;1,2376;0,3457;0,1075;0,2126;
11,317435;-0,2160;0,3889;1,0007;-1,0530;-1,3305;1,5420;0,3457;0,1075;0,2126;
11,322913;-0,1779;0,3753;0,9606;-1,0530;-1,3305;1,5420;0,3457;0,1075;0,2126;
11,337573;-0,1779;0,3753;0,9606;-1,0664;-1,3733;1,2747;0,3457;0,1075;0,2126;
11,357505;-0,1779;0,3753;0,9606;-0,8802;-1,3643;0,7070;0,3457;0,1075;0,2126;
11,367681;-0,1779;0,3753;0,9606;-0,8802;-1,3643;0,7070;0,2712;-0,0147;0,3702;
11,378196;-0,1779;0,3753;0,9606;-0,6475;-1,2095;0,0346;0,2712;-0,0147;0,3702;
11,388706;-0,1280;0,4036;0,7466;-0,6475;-1,2095;0,0346;0,2712;-0,0147;0,3702;
11,403465;-0,1280;0,4036;0,7466;-0,7433;-1,2757;-0,6841;0,2712;-0,0147;0,3702;
11,418785;-0,1280;0,4036;0,7466;-0,5032;-1,2676;-1,0125;0,2712;-0,0147;0,3702;
11,433736;-0,1280;0,4036;0,7466;-0,5032;-1,2676;-1,0125;-0,5852;-0,1845;0,4826;
11,440903;-0,1280;0,4036;0,7466;-0,3439;-1,2280;-1,2743;-0,5852;-0,1845;0,4826;
11,453002;-0,0264;0,4065;0,7466;-0,3439;-1,2280;-1,2743;-0,5852;-0,1845;0,4826;
11,461158;-0,0264;0,4065;0,7466;-0,0065;-1,0285;-1,1765;-0,5852;-0,1845;0,4826;
11,478864;-0,0264;0,4065;0,7466;0,0643;-1,0567;-0,9379;-0,5852;-0,1845;0,4826;
11,497152;-0,0264;0,4065;0,7466;-0,0389;-0,6046;0,3814;-0,5852;-0,1845;0,4826;
11,501420;-0,0264;0,4065;0,7466;-0,0389;-0,6046;0,3814;-0,6390;0,0305;0,2236;
11,516878;0,0068;0,3840;1,0398;-0,0389;-0,6046;0,3814;-0,6390;0,0305;0,2236;
11,519998;0,0068;0,3840;1,0398;0,4027;-0,5422;1,5804;-0,6390;0,0305;0,2236;
11,537185;0,0068;0,3840;1,0398;0,1965;-0,7374;1,5776;-0,6390;0,0305;0,2236;
11,556965;0,0068;0,3840;1,0398;-0,6517;-0,8860;0,6559;-0,6390;0,0305;0,2236;
11,562202;0,0068;0,3840;1,0398;-0,6517;-0,8860;0,6559;-0,1258;0,3738;0,4472;
11,579158;0,0068;0,3840;1,0398;-0,7561;-0,6327;0,8198;-0,1258;0,3738;0,4472;
11,583519;-0,1319;0,3850;1,0075;-0,7561;-0,6327;0,8198;-0,1258;0,3738;0,4472;
11,597611;-0,1319;0,3850;1,0075;-0,9213;-0,5672;1,1448;-0,1258;0,3738;0,4472;
11,617534;-0,1319;0,3850;1,0075;-1,1318;-0,5010;1,1065;-0,1258;0,3738;0,4472;
11,629490;-0,1319;0,3850;1,0075;-1,1318;-0,5010;1,1065;0,2370;0,4716;0,8491;
11,637336;-0,1319;0,3850;1,0075;-0,9411;-0,1810;1,5061;0,2370;0,4716;0,8491;
11,647384;-0,1104;0,4407;1,0867;-0,9411;-0,1810;1,5061;0,2370;0,4716;0,8491;
11,657869;-0,1104;0,4407;1,0867;-0,6993;0,0318;1,9861;0,2370;0,4716;0,8491;
11,678682;-0,1104;0,4407;1,0867;-0,6651;-0,0433;1,6201;0,2370;0,4716;0,8491;
11,698351;-0,1104;0,4407;1,0867;-0,6651;-0,0433;1,6201;0,6671;1,0214;1,0580;
11,706766;-0,1104;0,4407;1,0867;-0,5775;-0,0585;0,3589;0,6671;1,0214;1,0580;
11,712910;-0,1505;0,5228;0,7222;-0,5775;-0,0585;0,3589;0,6671;1,0214;1,0580;
11,720372;-0,1505;0,5228;0,7222;-0,6904;0,0771;-1,2602;0,6671;1,0214;1,0580;
11,737254;-0,1505;0,5228;0,7222;-0,7369;0,3980;-1,1823;0,6671;1,0214;1,0580;
11,757110;-0,1505;0,5228;0,7222;-0,7879;0,5981;-0,2566;0,6671;1,0214;1,0580;
11,760863;-0,1505;0,5228;0,7222;-0,7879;0,5981;-0,2566;-0,0415;0,2847;1,0214;
11,777162;-0,0381;0,4534;0,9118;-0,7879;0,5981;-0,2566;-0,0415;0,2847;1,0214;
11,779986;-0,0381;0,4534;0,9118;-0,3127;0,1191;0,1071;-0,0415;0,2847;1,0214;
11,797005;-0,0381;0,4534;0,9118;0,1886;-0,4262;0,5464;-0,0415;0,2847;1,0214;
11,817966;-0,0381;0,4534;0,9118;0,2919;-0,6036;0,1723;-0,0415;0,2847;1,0214;
11,823694;-0,0381;0,4534;0,9118;0,2919;-0,6036;0,1723;0,1197;0,6976;1,5284;
11,837598;-0,0381;0,4534;0,9118;-0,0470;-0,7044;-1,3274;0,1197;0,6976;1,5284;
11,843937;-0,0420;0,4994;0,6205;-0,0470;-0,7044;-1,3274;0,1197;0,6976;1,5284;
11,858790;-0,0420;0,4994;0,6205;0,0235;-0,3720;-2,4274;0,1197;0,6976;1,5284;
11,879512;-0,0420;0,4994;0,6205;0,1621;0,6964;-1,3767;0,1197;0,6976;1,5284;
11,889078;-0,0420;0,4994;0,6205;0,1621;0,6964;-1,3767;-0,0342;0,3946;1,3451;
11,898837;-0,0420;0,4994;0,6205;0,6194;0,2109;-0,1057;-0,0342;0,3946;1,3451;
11,912437;0,0684;0,4642;0,8707;0,6194;0,2109;-0,1057;-0,0342;0,3946;1,3451;
11,920408;0,0684;0,4642;0,8707;0,5101;-0,3692;0,1277;-0,0342;0,3946;1,3451;
11,937480;0,0684;0,4642;0,8707;0,9686;-0,2665;0,3100;-0,0342;0,3946;1,3451;
11,952107;0,0684;0,4642;0,8707;0,9686;-0,2665;0,3100;-0,1649;0,3836;1,0922;
11,958121;0,0684;0,4642;0,8707;1,7952;0,0638;0,9938;-0,1649;0,3836;1,0922;
11,971782;0,1827;0,4505;1,0544;1,7952;0,0638;0,9938;-0,1649;0,3836;1,0922;
11,977154;0,1827;0,4505;1,0544;1,7625;0,0991;1,7408;-0,1649;0,3836;1,0922;
11,996984;0,1827;0,4505;1,0544;1,3049;-0,5371;1,8865;-0,1649;0,3836;1,0922;
12,017130;0,1827;0,4505;1,0544;1,1918;-0,7021;1,6934;-0,1649;0,3836;1,0922;
12,020192;0,1827;0,4505;1,0544;1,1918;-0,7021;1,6934;0,2468;0,6817;1,1802;
12,036994;0,2394;0,4671;0,8883;1,1918;-0,7021;1,6934;0,2468;0,6817;1,1802;
12,040112;0,2394;0,4671;0,8883;1,6038;-0,3800;1,2199;0,2468;0,6817;1,1802;
12,057047;0,2394;0,4671;0,8883;1,6908;-0,1086;0,2101;0,2468;0,6817;1,1802;
12,077431;0,2394;0,4671;0,8883;1,2830;-0,1836;-0,8381;0,2468;0,6817;1,1802;
12,081911;0,2394;0,4671;0,8883;1,2830;-0,1836;-0,8381;0,4911;0,2615;0,7905;
12,097148;0,2394;0,4671;0,8883;0,7990;-0,3616;-1,1033;0,4911;0,2615;0,7905;
12,101669;0,1085;0,4231;0,7280;0,7990;-0,3616;-1,1033;0,4911;0,2615;0,7905;
12,117359;0,1085;0,4231;0,7280;0,3843;-0,6714;-1,1993;0,4911;0,2615;0,7905;
12,137442;0,1085;0,4231;0,7280;-0,0074;-0,9812;-1,3416;0,4911;0,2615;0,7905;
12,147594;0,1085;0,4231;0,7280;-0,0074;-0,9812;-1,3416;-0,1368;0,2053;0,8320;
12,157662;0,1085;0,4231;0,7280;0,0130;-1,0753;-1,3157;-0,1368;0,2053;0,8320;
12,167350;0,1505;0,3928;0,8267;0,0130;-1,0753;-1,3157;-0,1368;0,2053;0,8320;
12,178425;0,1505;0,3928;0,8267;0,4085;-0,9432;-0,6868;-0,1368;0,2053;0,8320;
12,198706;0,1505;0,3928;0,8267;0,4975;-1,0587;-0,0274;-0,1368;0,2053;0,8320;
12,214285;0,1505;0,3928;0,8267;0,4975;-1,0587;-0,0274;0,4484;0,1100;0,8980;
12,223537;0,1505;0,3928;0,8267;0,5725;-0,9312;-0,0612;0,4484;0,1100;0,8980;
12,233770;0,2453;0,4300;0,8043;0,5725;-0,9312;-0,0612;0,4484;0,1100;0,8980;
12,243281;0,2453;0,4300;0,8043;0,9567;-0,6666;-0,1459;0,4484;0,1100;0,8980;
12,257067;0,2453;0,4300;0,8043;1,1582;-0,5626;-0,6095;0,4484;0,1100;0,8980;
12,277143;0,2453;0,4300;0,8043;1,4562;-0,1978;-1,1835;0,4484;0,1100;0,8980;
12,280259;0,2453;0,4300;0,8043;1,4562;-0,1978;-1,1835;-0,1087;0,2468;0,6903;
12,297020;0,3860;0,5512;0,8668;1,4562;-0,1978;-1,1835;-0,1087;0,2468;0,6903;
12,300293;0,3860;0,5512;0,8668;1,6339;0,2240;-0,7835;-0,1087;0,2468;0,6903;
12,317536;0,3860;0,5512;0,8668;2,2701;0,5627;0,2001;-0,1087;0,2468;0,6903;
12,337209;0,3860;0,5512;0,8668;2,6804;0,6753;0,6291;-0,1087;0,2468;0,6903;
12,342162;0,3860;0,5512;0,8668;2,6804;0,6753;0,6291;-0,7819;1,2620;0,2224;
12,357034;0,3860;0,5512;0,8668;2,7475;0,6195;0,4691;-0,7819;1,2620;0,2224;
12,362002;0,4055;0,4984;0,9137;2,7475;0,6195;0,4691;-0,7819;1,2620;0,2224;
12,377806;0,4055;0,4984;0,9137;2,5910;0,3957;0,3218;-0,7819;1,2620;0,2224;
12,397523;0,4055;0,4984;0,9137;2,4210;0,3343;0,8879;-0,7819;1,2620;0,2224;
12,407942;0,4055;0,4984;0,9137;2,4210;0,3343;0,8879;0,0929;0,5082;0,0574;
12,423197;0,4055;0,4984;0,9137;1,8466;0,0184;0,5623;0,0929;0,5082;0,0574;
12,433027;0,2130;0,4202;0,7593;1,8466;0,0184;0,5623;0,0929;0,5082;0,0574;
12,442644;0,2130;0,4202;0,7593;1,1608;-0,1676;-0,6207;0,0929;0,5082;0,0574;
12,456891;0,2130;0,4202;0,7593;0,6955;-0,1371;-1,4527;0,0929;0,5082;0,0574;
12,472082;0,2130;0,4202;0,7593;0,6955;-0,1371;-1,4527;0,1881;-0,4300;0,1246;
12,477290;0,2130;0,4202;0,7593;0,4909;0,0832;-1,6480;0,1881;-0,4300;0,1246;
12,492032;0,1710;0,5023;0,7202;0,4909;0,0832;-1,6480;0,1881;-0,4300;0,1246;
12,496847;0,1710;0,5023;0,7202;0,3003;0,2507;-1,5163;0,1881;-0,4300;0,1246;
12,517230;0,1710;0,5023;0,7202;0,1797;0,3913;-1,3105;0,1881;-0,4300;0,1246;
12,536897;0,1710;0,5023;0,7202;-0,2531;0,2020;-0,5158;0,1881;-0,4300;0,1246;
12,540319;0,1710;0,5023;0,7202;-0,2531;0,2020;-0,5158;-0,1881;-0,5107;-0,0159;
12,556883;0,0909;0,4847;0,9225;-0,2531;0,2020;-0,5158;-0,1881;-0,5107;-0,0159;
12,559803;0,0909;0,4847;0,9225;-0,6289;0,1038;0,0741;-0,1881;-0,5107;-0,0159;
12,577655;0,0909;0,4847;0,9225;-0,6672;0,2578;0,5573;-0,1881;-0,5107;-0,0159;
12,597467;0,0909;0,4847;0,9225;-0,6954;0,3739;1,0255;-0,1881;-0,5107;-0,0159;
12,602489;0,0909;0,4847;0,9225;-0,6954;0,3739;1,0255;0,5534;-0,7501;-0,1087;
12,619189;0,0909;0,4847;0,9225;-0,4980;0,4576;1,2506;0,5534;-0,7501;-0,1087;
12,631535;0,1583;0,5336;0,9166;-0,4980;0,4576;1,2506;0,5534;-0,7501;-0,1087;
12,643097;0,1583;0,5336;0,9166;-0,3735;0,4962;0,8173;0,5534;-0,7501;-0,1087;
12,660284;0,1583;0,5336;0,9166;-0,2882;0,4853;0,3443;0,5534;-0,7501;-0,1087;
12,671839;0,1583;0,5336;0,9166;-0,2882;0,4853;0,3443;-0,0831;-0,1869;-0,2138;
12,677289;0,1583;0,5336;0,9166;-0,2704;0,3617;0,1132;-0,0831;-0,1869;-0,2138;
12,686845;0,1867;0,5257;0,8502;-0,2704;0,3617;0,1132;-0,0831;-0,1869;-0,2138;
12,698997;0,1867;0,5257;0,8502;-0,1344;0,2854;0,1631;-0,0831;-0,1869;-0,2138;
12,717191;0,1867;0,5257;0,8502;-0,0263;0,4024;0,2580;-0,0831;-0,1869;-0,2138;
12,732225;0,1867;0,5257;0,8502;-0,0263;0,4024;0,2580;0,0635;0,2981;-0,5547;
12,736846;0,1867;0,5257;0,8502;0,3401;0,5548;0,9942;0,0635;0,2981;-0,5547;
12,751790;0,1055;0,4945;0,7749;0,3401;0,5548;0,9942;0,0635;0,2981;-0,5547;
12,756853;0,1055;0,4945;0,7749;-0,1785;0,2384;0,2086;0,0635;0,2981;-0,5547;
12,777174;0,1055;0,4945;0,7749;-0,9047;-0,1848;-0,9223;0,0635;0,2981;-0,5547;
12,799158;0,1055;0,4945;0,7749;-1,3696;-0,2758;-1,6931;0,0635;0,2981;-0,5547;
12,804703;0,1055;0,4945;0,7749;-1,3696;-0,2758;-1,6931;-0,5351;-0,2553;-0,2370;
12,817568;0,0967;0,5111;0,7916;-1,3696;-0,2758;-1,6931;-0,5351;-0,2553;-0,2370;
12,821047;0,0967;0,5111;0,7916;-1,1086;-0,0187;-1,4847;-0,5351;-0,2553;-0,2370;
12,838640;0,0967;0,5111;0,7916;-0,5875;0,1535;-0,5211;-0,5351;-0,2553;-0,2370;
12,858524;0,0967;0,5111;0,7916;-0,4858;0,1160;1,0195;-0,5351;-0,2553;-0,2370;
12,867954;0,0967;0,5111;0,7916;-0,4858;0,1160;1,0195;-0,3005;-0,3250;-0,1637;
12,878226;0,0967;0,5111;0,7916;-0,5528;-0,1435;1,8684;-0,3005;-0,3250;-0,1637;
12,882887;0,1046;0,4417;1,0955;-0,5528;-0,1435;1,8684;-0,3005;-0,3250;-0,1637;
12,898773;0,1046;0,4417;1,0955;-0,5760;-0,1465;2,3345;-0,3005;-0,3250;-0,1637;
12,920043;0,1046;0,4417;1,0955;-0,6495;-0,1754;1,8439;-0,3005;-0,3250;-0,1637;
12,931632;0,1046;0,4417;1,0955;-0,6495;-0,1754;1,8439;0,6158;-0,0819;-0,0525;
12,938401;0,1046;0,4417;1,0955;-0,2654;0,0246;0,7841;0,6158;-0,0819;-0,0525;
12,952453;0,1788;0,5170;0,7378;-0,2654;0,0246;0,7841;0,6158;-0,0819;-0,0525;
12,957087;0,1788;0,5170;0,7378;0,0400;0,3470;-0,5872;0,6158;-0,0819;-0,0525;
12,977178;0,1788;0,5170;0,7378;-0,0262;0,2096;-1,3072;0,6158;-0,0819;-0,0525;
12,992170;0,1788;0,5170;0,7378;-0,0262;0,2096;-1,3072;-0,1503;0,0843;-0,3005;
12,997028;0,1788;0,5170;0,7378;-0,2890;-0,0519;-0,7900;-0,1503;0,0843;-0,3005;
13,011841;0,1280;0,4945;0,8560;-0,2890;-0,0519;-0,7900;-0,1503;0,0843;-0,3005;
13,017142;0,1280;0,4945;0,8560;-0,3886;-0,1941;-0,2409;-0,1503;0,0843;-0,3005;
13,037058;0,1280;0,4945;0,8560;-0,2483;0,0761;0,1736;-0,1503;0,0843;-0,3005;
13,057208;0,1280;0,4945;0,8560;-0,1958;0,1063;0,0539;-0,1503;0,0843;-0,3005;
13,061472;0,1280;0,4945;0,8560;-0,1958;0,1063;0,0539;0,1222;0,0745;-0,3836;
13,078468;0,1163;0,5238;0,8160;-0,1958;0,1063;0,0539;0,1222;0,0745;-0,3836;
13,084474;0,1163;0,5238;0,8160;-0,3022;0,1540;-0,2228;0,1222;0,0745;-0,3836;
13,097509;0,1163;0,5238;0,8160;-0,1957;0,1990;-0,2711;0,1222;0,0745;-0,3836;
13,118871;0,1163;0,5238;0,8160;-0,1745;0,1431;0,1497;0,1222;0,0745;-0,3836;
13,126576;0,1163;0,5238;0,8160;-0,1745;0,1431;0,1497;-0,1674;0,0574;-0,3738;
13,138296;0,1163;0,5238;0,8160;-0,0603;0,0916;0,7248;-0,1674;0,0574;-0,3738;
13,148362;0,1202;0,5033;0,9391;-0,0603;0,0916;0,7248;-0,1674;0,0574;-0,3738;
13,158326;0,1202;0,5033;0,9391;-0,0363;0,0403;0,9140;-0,1674;0,0574;-0,3738;
13,178600;0,1202;0,5033;0,9391;0,0754;0,1168;0,6509;-0,1674;0,0574;-0,3738;
13,188050;0,1202;0,5033;0,9391;0,0754;0,1168;0,6509;0,2040;0,1918;-0,4789;
13,198203;0,1202;0,5033;0,9391;0,4571;0,3669;0,1069;0,2040;0,1918;-0,4789;
13,210510;0,0997;0,5218;0,7769;0,4571;0,3669;0,1069;0,2040;0,1918;-0,4789;
13,217577;0,0997;0,5218;0,7769;0,2211;0,2651;-0,6027;0,2040;0,1918;-0,4789;
13,236998;0,0997;0,5218;0,7769;-0,2989;-0,1034;-0,5211;0,2040;0,1918;-0,4789;
13,252132;0,0997;0,5218;0,7769;-0,2989;-0,1034;-0,5211;-0,0611;0,2578;-0,3555;
13,258169;0,0997;0,5218;0,7769;-0,7134;-0,6059;-0,0577;-0,0611;0,2578;-0,3555;
13,272291;0,0039;0,4329;0,8990;-0,7134;-0,6059;-0,0577;-0,0611;0,2578;-0,3555;
13,277158;0,0039;0,4329;0,8990;-0,7765;-0,8782;0,2571;-0,0611;0,2578;-0,3555;
13,297005;0,0039;0,4329;0,8990;-0,6220;-0,6002;0,4856;-0,0611;0,2578;-0,3555;
13,317296;0,0039;0,4329;0,8990;-0,5346;-0,1731;0,3027;-0,0611;0,2578;-0,3555;
13,320813;0,0039;0,4329;0,8990;-0,5346;-0,1731;0,3027;0,3812;0,0709;-0,1405;
13,337307;0,0459;0,5453;0,7573;-0,5346;-0,1731;0,3027;0,3812;0,0709;-0,1405;
13,342067;0,0459;0,5453;0,7573;-0,3857;-0,0359;-0,1475;0,3812;0,0709;-0,1405;
13,358313;0,0459;0,5453;0,7573;-0,0383;0,2441;-0,8459;0,3812;0,0709;-0,1405;
13,378364;0,0459;0,5453;0,7573;0,1018;0,4223;-1,1332;0,3812;0,0709;-0,1405;
13,387719;0,0459;0,5453;0,7573;0,1018;0,4223;-1,1332;-0,2517;-0,0855;-0,2944;
13,398354;0,0459;0,5453;0,7573;-0,0174;0,2979;-0,8063;-0,2517;-0,0855;-0,2944;
13,409872;0,0332;0,5306;0,8228;-0,0174;0,2979;-0,8063;-0,2517;-0,0855;-0,2944;
13,417252;0,0332;0,5306;0,8228;-0,1027;0,0348;-0,2424;-0,2517;-0,0855;-0,2944;
13,437036;0,0332;0,5306;0,8228;-0,0097;0,0056;-0,0490;-0,2517;-0,0855;-0,2944;
13,447264;0,0332;0,5306;0,8228;-0,0097;0,0056;-0,0490;-0,1894;0,0012;-0,3409;
13,457157;0,0332;0,5306;0,8228;0,2195;0,1033;0,1560;-0,1894;0,0012;-0,3409;
13,467161;0,0401;0,5189;0,8619;0,2195;0,1033;0,1560;-0,1894;0,0012;-0,3409;
13,477407;0,0401;0,5189;0,8619;0,1998;0,0989;0,2898;-0,1894;0,0012;-0,3409;
13,497633;0,0401;0,5189;0,8619;-0,1235;0,0354;-0,0350;-0,1894;0,0012;-0,3409;
13,512578;0,0401;0,5189;0,8619;-0,1235;0,0354;-0,0350;-0,1454;0,0623;-0,3604;
13,518253;0,0401;0,5189;0,8619;-0,1750;0,1463;-0,5228;-0,1454;0,0623;-0,3604;
13,532425;-0,0489;0,5013;0,7495;-0,1750;0,1463;-0,5228;-0,1454;0,0623;-0,3604;
13,538671;-0,0489;0,5013;0,7495;-0,2793;0,0685;-0,8603;-0,1454;0,0623;-0,3604;
13,558422;-0,0489;0,5013;0,7495;-0,7626;-0,2041;-0,9490;-0,1454;0,0623;-0,3604;
13,578314;-0,0489;0,5013;0,7495;-0,8403;-0,3322;-0,6399;-0,1454;0,0623;-0,3604;
13,589543;-0,0489;0,5013;0,7495;-0,8403;-0,3322;-0,6399;-0,2969;-0,3396;-0,0635;
13,597987;-0,0342;0,4945;0,9313;-0,8403;-0,3322;-0,6399;-0,2969;-0,3396;-0,0635;
13,605593;-0,0342;0,4945;0,9313;-0,5754;-0,1381;0,2680;-0,2969;-0,3396;-0,0635;
13,618489;-0,0342;0,4945;0,9313;-0,4576;-0,0299;0,7182;-0,2969;-0,3396;-0,0635;
13,641208;-0,0342;0,4945;0,9313;-0,4596;0,0868;0,6925;-0,2969;-0,3396;-0,0635;
13,650916;-0,0342;0,4945;0,9313;-0,4596;0,0868;0,6925;-0,0599;-0,1271;0,0171;
13,660074;-0,0342;0,4945;0,9313;-0,2368;0,2618;0,6627;-0,0599;-0,1271;0,0171;
13,668067;-0,0068;0,5121;0,9557;-0,2368;0,2618;0,6627;-0,0599;-0,1271;0,0171;
13,677127;-0,0068;0,5121;0,9557;-0,2215;0,2621;0,8928;-0,0599;-0,1271;0,0171;
13,697069;-0,0068;0,5121;0,9557;-0,3114;0,0362;0,8368;-0,0599;-0,1271;0,0171;
13,707427;-0,0068;0,5121;0,9557;-0,3114;0,0362;0,8368;-0,1063;-0,0269;0,1649;
13,717065;-0,0068;0,5121;0,9557;-0,1964;-0,0326;0,6846;-0,1063;-0,0269;0,1649;
13,726877;0,0322;0,5101;0,9381;-0,1964;-0,0326;0,6846;-0,1063;-0,0269;0,1649;
13,736989;0,0322;0,5101;0,9381;-0,0194;0,1526;0,6789;-0,1063;-0,0269;0,1649;
13,756978;0,0322;0,5101;0,9381;0,0912;0,2419;0,6678;-0,1063;-0,0269;0,1649;
13,772500;0,0322;0,5101;0,9381;0,0912;0,2419;0,6678;-0,0501;0,0012;-0,0098;
13,777409;0,0322;0,5101;0,9381;-0,0890;0,1795;0,2076;-0,0501;0,0012;-0,0098;
13,792400;-0,0010;0,4906;0,8404;-0,0890;0,1795;0,2076;-0,0501;0,0012;-0,0098;
13,797535;-0,0010;0,4906;0,8404;-0,2199;0,1714;-0,2990;-0,0501;0,0012;-0,0098;
13,817810;-0,0010;0,4906;0,8404;-0,2441;0,0806;-0,1901;-0,0501;0,0012;-0,0098;
13,838859;-0,0010;0,4906;0,8404;-0,2165;0,0761;0,4054;-0,0501;0,0012;-0,0098;
13,850322;-0,0010;0,4906;0,8404;-0,2165;0,0761;0,4054;0,2004;0,0574;0,1075;
13,859477;0,0020;0,4974;0,8023;-0,2165;0,0761;0,4054;0,2004;0,0574;0,1075;
13,867454;0,0020;0,4974;0,8023;-0,2063;0,0280;0,2043;0,2004;0,0574;0,1075;
13,877219;0,0020;0,4974;0,8023;-0,2007;0,1290;-0,6189;0,2004;0,0574;0,1075;
13,897030;0,0020;0,4974;0,8023;-0,1950;0,0886;-0,8698;0,2004;0,0574;0,1075;
13,902214;0,0020;0,4974;0,8023;-0,1950;0,0886;-0,8698;-0,0892;-0,1381;0,1026;
13,917169;0,0020;0,4974;0,8023;0,0499;-0,1083;-0,4662;-0,0892;-0,1381;0,1026;
13,922319;0,0274;0,4730;0,8541;0,0499;-0,1083;-0,4662;-0,0892;-0,1381;0,1026;
13,937079;0,0274;0,4730;0,8541;-0,0001;-0,1330;-0,1986;-0,0892;-0,1381;0,1026;
13,957181;0,0274;0,4730;0,8541;-0,0638;-0,2742;0,0623;-0,0892;-0,1381;0,1026;
13,969469;0,0274;0,4730;0,8541;-0,0638;-0,2742;0,0623;-0,0122;-0,0489;0,2224;
13,977415;0,0274;0,4730;0,8541;-0,1729;-0,1968;-0,3014;-0,0122;-0,0489;0,2224;
13,987067;0,0235;0,4622;0,8541;-0,1729;-0,1968;-0,3014;-0,0122;-0,0489;0,2224;
13,997308;0,0235;0,4622;0,8541;-0,0849;-0,1508;-0,2653;-0,0122;-0,0489;0,2224;
14,017679;0,0235;0,4622;0,8541;-0,0808;-0,2077;-0,0155;-0,0122;-0,0489;0,2224;
14,033639;0,0235;0,4622;0,8541;-0,0808;-0,2077;-0,0155;0,0660;-0,2419;0,3311;
14,041179;0,0235;0,4622;0,8541;0,1035;-0,0886;-0,0572;0,0660;-0,2419;0,3311;
14,053173;0,1173;0,4886;0,8912;0,1035;-0,0886;-0,0572;0,0660;-0,2419;0,3311;
14,062644;0,1173;0,4886;0,8912;0,2790;0,1885;0,0747;0,0660;-0,2419;0,3311;
14,078622;0,1173;0,4886;0,8912;0,5849;0,0206;0,3542;0,0660;-0,2419;0,3311;
14,101561;0,1173;0,4886;0,8912;0,3842;0,0169;0,3532;0,0660;-0,2419;0,3311;
14,110495;0,1173;0,4886;0,8912;0,3842;0,0169;0,3532;-0,0354;0,0464;0,2541;
14,119214;0,0997;0,4818;0,8971;0,3842;0,0169;0,3532;-0,0354;0,0464;0,2541;
14,128398;0,0997;0,4818;0,8971;0,3545;0,1196;0,1941;-0,0354;0,0464;0,2541;
14,137016;0,0997;0,4818;0,8971;0,2962;0,0314;0,3039;-0,0354;0,0464;0,2541;
14,157302;0,0997;0,4818;0,8971;0,2645;-0,0623;0,2167;-0,0354;0,0464;0,2541;
14,163923;0,0997;0,4818;0,8971;0,2645;-0,0623;0,2167;0,1051;0,0977;0,2724;
14,177218;0,0997;0,4818;0,8971;0,2893;0,0105;0,1353;0,1051;0,0977;0,2724;
14,182155;0,1085;0,4769;0,8433;0,2893;0,0105;0,1353;0,1051;0,0977;0,2724;
14,197356;0,1085;0,4769;0,8433;0,2659;-0,0363;-0,1230;0,1051;0,0977;0,2724;
14,217202;0,1085;0,4769;0,8433;0,0962;-0,0692;-0,4522;0,1051;0,0977;0,2724;
14,227250;0,1085;0,4769;0,8433;0,0962;-0,0692;-0,4522;0,0415;-0,0696;0,3787;
14,237387;0,1085;0,4769;0,8433;-0,3652;-0,2730;-0,7392;0,0415;-0,0696;0,3787;
14,247481;0,0547;0,4808;0,7710;-0,3652;-0,2730;-0,7392;0,0415;-0,0696;0,3787;
14,257466;0,0547;0,4808;0,7710;-0,4308;-0,2207;-0,9102;0,0415;-0,0696;0,3787;
14,278111;0,0547;0,4808;0,7710;-0,1129;0,1816;-0,5999;0,0415;-0,0696;0,3787;
14,292616;0,0547;0,4808;0,7710;-0,1129;0,1816;-0,5999;-0,3751;0,2676;0,5705;
14,301427;0,0547;0,4808;0,7710;0,0700;0,1705;0,1070;-0,3751;0,2676;0,5705;
14,316302;0,1104;0,4769;0,9020;0,0700;0,1705;0,1070;-0,3751;0,2676;0,5705;
14,324618;0,1104;0,4769;0,9020;-0,2585;-0,1097;0,3018;-0,3751;0,2676;0,5705;
14,339682;0,1104;0,4769;0,9020;0,1561;0,2226;0,4038;-0,3751;0,2676;0,5705;
14,358230;0,1104;0,4769;0,9020;0,7007;0,6387;0,8946;-0,3751;0,2676;0,5705;
14,368841;0,1104;0,4769;0,9020;0,7007;0,6387;0,8946;-0,1503;-0,0098;0,3323;
14,382301;0,2238;0,4779;1,0280;0,7007;0,6387;0,8946;-0,1503;-0,0098;0,3323;
14,391194;0,2238;0,4779;1,0280;0,9874;0,6303;1,6629;-0,1503;-0,0098;0,3323;
14,401274;0,2238;0,4779;1,0280;0,9660;0,3676;1,4516;-0,1503;-0,0098;0,3323;
14,420833;0,2238;0,4779;1,0280;0,9305;0,3443;0,5396;-0,1503;-0,0098;0,3323;
14,431569;0,2238;0,4779;1,0280;0,9305;0,3443;0,5396;0,2334;-0,1405;0,1710;
14,436960;0,2238;0,4779;1,0280;0,9871;0,3647;-0,1747;0,2334;-0,1405;0,1710;
14,441815;0,2316;0,4730;0,8101;0,9871;0,3647;-0,1747;0,2334;-0,1405;0,1710;
14,457060;0,2316;0,4730;0,8101;0,8976;0,2716;-0,5437;0,2334;-0,1405;0,1710;
14,477228;0,2316;0,4730;0,8101;0,6735;0,1818;-0,7323;0,2334;-0,1405;0,1710;
14,487159;0,2316;0,4730;0,8101;0,6735;0,1818;-0,7323;0,0965;-0,3543;-0,0415;
14,497028;0,2316;0,4730;0,8101;0,7545;0,2174;-0,5710;0,0965;-0,3543;-0,0415;
14,506865;0,2003;0,4730;0,8170;0,7545;0,2174;-0,5710;0,0965;-0,3543;-0,0415;
14,517165;0,2003;0,4730;0,8170;0,5920;0,1715;-0,3713;0,0965;-0,3543;-0,0415;
14,537234;0,2003;0,4730;0,8170;0,0161;-0,0269;-0,5314;0,0965;-0,3543;-0,0415;
14,552262;0,2003;0,4730;0,8170;0,0161;-0,0269;-0,5314;0,1185;-0,3018;-0,2126;
14,557224;0,2003;0,4730;0,8170;-0,2884;-0,2104;-0,3769;0,1185;-0,3018;-0,2126;
14,572290;0,1954;0,4808;0,8639;-0,2884;-0,2104;-0,3769;0,1185;-0,3018;-0,2126;
14,577630;0,1954;0,4808;0,8639;-0,0827;-0,0200;0,0080;0,1185;-0,3018;-0,2126;
14,599287;0,1954;0,4808;0,8639;0,0884;0,1304;0,1354;0,1185;-0,3018;-0,2126;
14,618804;0,1954;0,4808;0,8639;-0,2026;-0,0632;0,2107;0,1185;-0,3018;-0,2126;
14,629714;0,1954;0,4808;0,8639;-0,2026;-0,0632;0,2107;0,0721;-0,0855;-0,3079;
14,638329;0,1671;0,4515;0,8600;-0,2026;-0,0632;0,2107;0,0721;-0,0855;-0,3079;
14,645876;0,1671;0,4515;0,8600;-0,3783;-0,3679;0,0844;0,0721;-0,0855;-0,3079;
14,662756;0,1671;0,4515;0,8600;-0,1588;-0,2119;0,0756;0,0721;-0,0855;-0,3079;
14,678681;0,1671;0,4515;0,8600;-0,1439;-0,1162;-0,0733;0,0721;-0,0855;-0,3079;
14,686746;0,1671;0,4515;0,8600;-0,1439;-0,1162;-0,0733;-0,1454;0,0501;-0,2615;
14,698121;0,1671;0,4515;0,8600;-0,1787;-0,2248;-0,2346;-0,1454;0,0501;-0,2615;
14,705981;0,1642;0,4681;0,8512;-0,1787;-0,2248;-0,2346;-0,1454;0,0501;-0,2615;
14,718507;0,1642;0,4681;0,8512;-0,1929;-0,1034;-0,0936;-0,1454;0,0501;-0,2615;
14,738205;0,1642;0,4681;0,8512;0,1118;0,1463;0,1099;-0,1454;0,0501;-0,2615;
14,748637;0,1642;0,4681;0,8512;0,1118;0,1463;0,1099;0,0635;-0,4386;-0,1478;
14,761229;0,1642;0,4681;0,8512;0,0780;0,2959;0,1531;0,0635;-0,4386;-0,1478;
14,771606;0,2316;0,5404;0,8707;0,0780;0,2959;0,1531;0,0635;-0,4386;-0,1478;
14,779757;0,2316;0,5404;0,8707;0,1582;0,4738;0,0683;0,0635;-0,4386;-0,1478;
14,797028;0,2316;0,5404;0,8707;0,8602;0,9191;0,3080;0,0635;-0,4386;-0,1478;
14,812069;0,2316;0,5404;0,8707;0,8602;0,9191;0,3080;0,3641;-0,1197;-0,3042;
14,817098;0,2316;0,5404;0,8707;1,3964;1,2505;0,3629;0,3641;-0,1197;-0,3042;
14,832024;0,2736;0,5824;0,7896;1,3964;1,2505;0,3629;0,3641;-0,1197;-0,3042;
14,836843;0,2736;0,5824;0,7896;1,2497;1,1300;-0,0471;0,3641;-0,1197;-0,3042;
14,857096;0,2736;0,5824;0,7896;0,3455;0,7018;-0,4790;0,3641;-0,1197;-0,3042;
14,877139;0,2736;0,5824;0,7896;-0,3793;0,1640;-0,2031;0,3641;-0,1197;-0,3042;
14,880301;0,2736;0,5824;0,7896;-0,3793;0,1640;-0,2031;0,2688;-0,5412;-0,5217;
14,897158;0,0997;0,4485;0,8951;-0,3793;0,1640;-0,2031;0,2688;-0,5412;-0,5217;
14,900401;0,0997;0,4485;0,8951;-0,7615;-0,4069;0,2819;0,2688;-0,5412;-0,5217;
14,917674;0,0997;0,4485;0,8951;-1,0779;-0,6831;0,7422;0,2688;-0,5412;-0,5217;
14,939743;0,0997;0,4485;0,8951;-0,8505;-0,6088;0,7395;0,2688;-0,5412;-0,5217;
14,945884;0,0997;0,4485;0,8951;-0,8505;-0,6088;0,7395;0,1833;-0,1735;-0,3054;
14,958256;0,0997;0,4485;0,8951;-0,5413;-0,3096;0,5522;0,1833;-0,1735;-0,3054;
14,972081;0,1622;0,5189;0,8756;-0,5413;-0,3096;0,5522;0,1833;-0,1735;-0,3054;
14,977416;0,1622;0,5189;0,8756;-0,4153;-0,1234;0,5422;0,1833;-0,1735;-0,3054;
14,997145;0,1622;0,5189;0,8756;-0,3029;-0,1706;0,9072;0,1833;-0,1735;-0,3054;
15,007268;0,1622;0,5189;0,8756;-0,3029;-0,1706;0,9072;0,3323;0,0098;-0,4349;
15,017068;0,1622;0,5189;0,8756;-0,0848;-0,3572;1,3451;0,3323;0,0098;-0,4349;
15,026752;0,1710;0,4593;0,8805;-0,0848;-0,3572;1,3451;0,3323;0,0098;-0,4349;
15,036872;0,1710;0,4593;0,8805;-0,1627;-0,7284;1,1032;0,3323;0,0098;-0,4349;
15,056739;0,1710;0,4593;0,8805;-0,3887;-0,7611;0,1464;0,3323;0,0098;-0,4349;
15,071952;0,1710;0,4593;0,8805;-0,3887;-0,7611;0,1464;0,4178;0,4362;-0,4435;
15,076817;0,1710;0,4593;0,8805;-0,3398;-0,6589;-1,0506;0,4178;0,4362;-0,4435;
15,091797;0,1593;0,5482;0,5590;-0,3398;-0,6589;-1,0506;0,4178;0,4362;-0,4435;
15,096641;0,1593;0,5482;0,5590;-0,0663;-0,4992;-1,9740;0,4178;0,4362;-0,4435;
15,117031;0,1593;0,5482;0,5590;-0,0727;-0,1793;-2,3036;0,4178;0,4362;-0,4435;
15,137701;0,1593;0,5482;0,5590;-0,1120;-0,4905;-2,0687;0,4178;0,4362;-0,4435;
15,144740;0,1593;0,5482;0,5590;-0,1120;-0,4905;-2,0687;-0,3592;-0,3616;-0,5473;
15,157970;0,2072;0,5472;0,6831;-0,1120;-0,4905;-2,0687;-0,3592;-0,3616;-0,5473;
15,162386;0,2072;0,5472;0,6831;0,1148;-0,4498;-1,7415;-0,3592;-0,3616;-0,5473;
15,177661;0,2072;0,5472;0,6831;0,5154;-0,2859;-1,0745;-0,3592;-0,3616;-0,5473;
15,197705;0,2072;0,5472;0,6831;0,7287;-0,1549;-0,2046;-0,3592;-0,3616;-0,5473;
15,203730;0,2072;0,5472;0,6831;0,7287;-0,1549;-0,2046;-0,3067;0,0525;-0,6756;
15,223015;0,2072;0,5472;0,6831;0,5723;0,1961;0,5294;-0,3067;0,0525;-0,6756;
15,233243;0,2033;0,5443;0,8052;0,5723;0,1961;0,5294;-0,3067;0,0525;-0,6756;
15,242612;0,2033;0,5443;0,8052;0,6348;-0,0607;0,1906;-0,3067;0,0525;-0,6756;
15,258373;0,2033;0,5443;0,8052;0,1754;-0,3580;-0,3780;-0,3067;0,0525;-0,6756;
15,268904;0,2033;0,5443;0,8052;0,1754;-0,3580;-0,3780;-0,3335;-0,3042;-0,4398;
15,280302;0,2033;0,5443;0,8052;-0,2929;-0,3659;-0,3297;-0,3335;-0,3042;-0,4398;
15,292876;0,1134;0,5580;0,8433;-0,2929;-0,3659;-0,3297;-0,3335;-0,3042;-0,4398;
15,296829;0,1134;0,5580;0,8433;-0,2123;-0,1216;-0,0634;-0,3335;-0,3042;-0,4398;
15,317164;0,1134;0,5580;0,8433;-0,0467;0,1983;0,7561;-0,3335;-0,3042;-0,4398;
15,333417;0,1134;0,5580;0,8433;-0,0467;0,1983;0,7561;-0,1478;-0,1869;-0,4129;
15,336966;0,1134;0,5580;0,8433;-0,0942;0,0152;1,3179;-0,1478;-0,1869;-0,4129;
15,352052;0,1114;0,5297;0,9039;-0,0942;0,0152;1,3179;-0,1478;-0,1869;-0,4129;
15,356866;0,1114;0,5297;0,9039;-0,2485;-0,1906;1,0874;-0,1478;-0,1869;-0,4129;
15,377197;0,1114;0,5297;0,9039;-0,0774;-0,0119;0,7298;-0,1478;-0,1869;-0,4129;
15,397285;0,1114;0,5297;0,9039;0,0128;0,0483;0,5526;-0,1478;-0,1869;-0,4129;
15,401106;0,1114;0,5297;0,9039;0,0128;0,0483;0,5526;-0,2297;-0,2431;-0,3861;
15,417692;0,1427;0,5394;0,9030;0,0128;0,0483;0,5526;-0,2297;-0,2431;-0,3861;
15,422933;0,1427;0,5394;0,9030;-0,0610;-0,0079;0,4207;-0,2297;-0,2431;-0,3861;
15,437754;0,1427;0,5394;0,9030;0,2249;0,1297;0,6957;-0,2297;-0,2431;-0,3861;
15,458348;0,1427;0,5394;0,9030;0,4535;0,2956;1,1181;-0,2297;-0,2431;-0,3861;
15,465122;0,1427;0,5394;0,9030;0,4535;0,2956;1,1181;0,1503;-0,2089;-0,5547;
15,478444;0,1427;0,5394;0,9030;0,2096;0,0371;1,1888;0,1503;-0,2089;-0,5547;
15,485485;0,0987;0,4876;0,8815;0,2096;0,0371;1,1888;0,1503;-0,2089;-0,5547;
15,502654;0,0987;0,4876;0,8815;-0,1601;-0,3249;0,6344;0,1503;-0,2089;-0,5547;
15,518946;0,0987;0,4876;0,8815;-0,1156;-0,4533;0,1147;0,1503;-0,2089;-0,5547;
15,529597;0,0987;0,4876;0,8815;-0,1156;-0,4533;0,1147;0,1051;-0,3042;-0,5339;
15,538496;0,0987;0,4876;0,8815;0,0555;-0,4108;-0,0759;0,1051;-0,3042;-0,5339;
15,554488;0,0967;0,4964;0,7564;0,0555;-0,4108;-0,0759;0,1051;-0,3042;-0,5339;
15,557032;0,0967;0,4964;0,7564;-0,0372;-0,4059;-0,4762;0,1051;-0,3042;-0,5339;
15,577204;0,0967;0,4964;0,7564;-0,4366;-0,3384;-0,8461;0,1051;-0,3042;-0,5339;
15,592699;0,0967;0,4964;0,7564;-0,4366;-0,3384;-0,8461;-0,3885;-0,0904;-0,6133;
15,597274;0,0967;0,4964;0,7564;-0,9539;-0,0808;-1,0069;-0,3885;-0,0904;-0,6133;
15,613363;-0,0166;0,5707;0,8023;-0,9539;-0,0808;-1,0069;-0,3885;-0,0904;-0,6133;
15,617155;-0,0166;0,5707;0,8023;-1,0545;0,2885;-0,5277;-0,3885;-0,0904;-0,6133;
15,637042;-0,0166;0,5707;0,8023;-1,1352;0,4198;-0,2924;-0,3885;-0,0904;-0,6133;
15,657164;-0,0166;0,5707;0,8023;-1,1547;0,1747;-0,1323;-0,3885;-0,0904;-0,6133;
15,661065;-0,0166;0,5707;0,8023;-1,1547;0,1747;-0,1323;-0,0342;-0,3543;-0,7208;
15,677591;-0,0352;0,5140;0,8785;-1,1547;0,1747;-0,1323;-0,0342;-0,3543;-0,7208;
15,682609;-0,0352;0,5140;0,8785;-1,0979;-0,0972;0,1122;-0,0342;-0,3543;-0,7208;
15,697347;-0,0352;0,5140;0,8785;-0,9745;-0,1271;0,3928;-0,0342;-0,3543;-0,7208;
15,718904;-0,0352;0,5140;0,8785;-1,1579;-0,1322;0,0504;-0,0342;-0,3543;-0,7208;
15,726203;-0,0352;0,5140;0,8785;-1,1579;-0,1322;0,0504;-0,2016;-0,0721;-0,3653;
15,738660;-0,0352;0,5140;0,8785;-1,1848;-0,2311;-0,2982;-0,2016;-0,0721;-0,3653;
15,747839;-0,0068;0,5512;0,7994;-1,1848;-0,2311;-0,2982;-0,2016;-0,0721;-0,3653;
15,757284;-0,0068;0,5512;0,7994;-0,5838;0,1662;-0,4129;-0,2016;-0,0721;-0,3653;
15,777233;-0,0068;0,5512;0,7994;-0,3818;0,4042;-0,3738;-0,2016;-0,0721;-0,3653;
15,787111;-0,0068;0,5512;0,7994;-0,3818;0,4042;-0,3738;-0,4154;-0,1283;-0,0867;
15,797030;-0,0068;0,5512;0,7994;-0,5777;0,2211;-0,5497;-0,4154;-0,1283;-0,0867;
15,806945;-0,0547;0,5033;0,7925;-0,5777;0,2211;-0,5497;-0,4154;-0,1283;-0,0867;
15,817347;-0,0547;0,5033;0,7925;-0,8786;-0,0562;-0,6692;-0,4154;-0,1283;-0,0867;
15,837083;-0,0547;0,5033;0,7925;-0,5788;0,1094;-0,4428;-0,4154;-0,1283;-0,0867;
15,852291;-0,0547;0,5033;0,7925;-0,5788;0,1094;-0,4428;-0,0501;-0,0648;0,2382;
15,857136;-0,0547;0,5033;0,7925;-0,1234;0,6958;-0,2421;-0,0501;-0,0648;0,2382;
15,872056;0,0176;0,5629;0,7329;-0,1234;0,6958;-0,2421;-0,0501;-0,0648;0,2382;
15,878899;0,0176;0,5629;0,7329;-0,0819;0,8023;-0,7004;-0,0501;-0,0648;0,2382;
15,897780;0,0176;0,5629;0,7329;-0,3937;0,4652;-1,2380;-0,0501;-0,0648;0,2382;
15,919826;0,0176;0,5629;0,7329;-0,6632;0,2565;-1,4329;-0,0501;-0,0648;0,2382;
15,928535;0,0176;0,5629;0,7329;-0,6632;0,2565;-1,4329;-0,1307;-0,3836;0,1246;
15,938156;-0,0127;0,5385;0,7466;-0,6632;0,2565;-1,4329;-0,1307;-0,3836;0,1246;
15,946434;-0,0127;0,5385;0,7466;-0,6947;0,2317;-1,1832;-0,1307;-0,3836;0,1246;
15,958021;-0,0127;0,5385;0,7466;-0,7034;0,3141;-1,0151;-0,1307;-0,3836;0,1246;
15,978581;-0,0127;0,5385;0,7466;-0,5793;0,2616;-0,7106;-0,1307;-0,3836;0,1246;
15,985017;-0,0127;0,5385;0,7466;-0,5793;0,2616;-0,7106;-0,4508;-0,5522;-0,0696;
15,998361;-0,0127;0,5385;0,7466;0,0835;0,4023;-0,0708;-0,4508;-0,5522;-0,0696;
16,005338;0,1270;0,5218;0,9547;0,0835;0,4023;-0,0708;-0,4508;-0,5522;-0,0696;
16,018635;0,1270;0,5218;0,9547;0,3884;0,3402;0,8070;-0,4508;-0,5522;-0,0696;
16,038148;0,1270;0,5218;0,9547;0,3321;0,1229;1,1476;-0,4508;-0,5522;-0,0696;
16,048458;0,1270;0,5218;0,9547;0,3321;0,1229;1,1476;-0,3958;-0,2089;-0,0525;
16,062123;0,1270;0,5218;0,9547;0,0523;0,0715;1,0281;-0,3958;-0,2089;-0,0525;
16,070936;0,0889;0,4837;0,9645;0,0523;0,0715;1,0281;-0,3958;-0,2089;-0,0525;
16,082467;0,0889;0,4837;0,9645;-0,1643;0,0742;0,9347;-0,3958;-0,2089;-0,0525;
16,097392;0,0889;0,4837;0,9645;-0,0280;0,3019;0,8576;-0,3958;-0,2089;-0,0525;
16,112139;0,0889;0,4837;0,9645;-0,0280;0,3019;0,8576;0,1442;-0,3238;0,1943;
16,117365;0,0889;0,4837;0,9645;0,2758;0,6874;0,5564;0,1442;-0,3238;0,1943;
16,132025;0,1397;0,5551;0,8404;0,2758;0,6874;0,5564;0,1442;-0,3238;0,1943;
16,136778;0,1397;0,5551;0,8404;0,3861;0,7537;0,0489;0,1442;-0,3238;0,1943;
16,157077;0,1397;0,5551;0,8404;-0,0388;0,8365;-0,3231;0,1442;-0,3238;0,1943;
16,177139;0,1397;0,5551;0,8404;-0,0682;0,5493;-0,4486;0,1442;-0,3238;0,1943;
16,180726;0,1397;0,5551;0,8404;-0,0682;0,5493;-0,4486;-0,1979;-0,9334;0,3238;
16,196987;0,2511;0,4906;0,9733;-0,0682;0,5493;-0,4486;-0,1979;-0,9334;0,3238;
16,199577;0,2511;0,4906;0,9733;0,5608;0,2612;0,2172;-0,1979;-0,9334;0,3238;
16,217130;0,2511;0,4906;0,9733;0,7014;0,2742;1,1193;-0,1979;-0,9334;0,3238;
16,237030;0,2511;0,4906;0,9733;0,1746;-0,1666;1,0870;-0,1979;-0,9334;0,3238;
16,241967;0,2511;0,4906;0,9733;0,1746;-0,1666;1,0870;-0,4911;0,1881;0,1307;
16,256882;0,2511;0,4906;0,9733;-0,8328;-0,8997;0,0040;-0,4911;0,1881;0,1307;
16,261943;0,0831;0,2511;0,7026;-0,8328;-0,8997;0,0040;-0,4911;0,1881;0,1307;
16,277212;0,0831;0,2511;0,7026;-1,1366;-1,5935;-1,2000;-0,4911;0,1881;0,1307;
16,297172;0,0831;0,2511;0,7026;-0,5463;-1,7933;-2,1096;-0,4911;0,1881;0,1307;
16,307248;0,0831;0,2511;0,7026;-0,5463;-1,7933;-2,1096;-1,3048;-0,6463;0,3054;
16,317183;0,0831;0,2511;0,7026;1,4557;-0,8728;-0,2373;-1,3048;-0,6463;0,3054;
16,327037;0,5590;0,4300;1,2166;1,4557;-0,8728;-0,2373;-1,3048;-0,6463;0,3054;
16,338283;0,5590;0,4300;1,2166;3,0488;0,4394;2,2443;-1,3048;-0,6463;0,3054;
16,357085;0,5590;0,4300;1,2166;3,0644;0,4147;3,8325;-1,3048;-0,6463;0,3054;
16,372048;0,5590;0,4300;1,2166;3,0644;0,4147;3,8325;-0,0782;0,3299;-0,6426;
16,377166;0,5590;0,4300;1,2166;1,9426;-0,7177;3,6830;-0,0782;0,3299;-0,6426;
16,392155;0,3371;0,2775;1,0789;1,9426;-0,7177;3,6830;-0,0782;0,3299;-0,6426;
16,397331;0,3371;0,2775;1,0789;0,9291;-0,9426;2,7416;-0,0782;0,3299;-0,6426;
16,417828;0,3371;0,2775;1,0789;1,0684;-0,3163;1,2737;-0,0782;0,3299;-0,6426;
16,438877;0,3371;0,2775;1,0789;1,0924;-0,0519;0,1606;-0,0782;0,3299;-0,6426;
16,443994;0,3371;0,2775;1,0789;1,0924;-0,0519;0,1606;0,3824;0,0086;-0,7074;
16,458775;0,2785;0,3205;0,8697;1,0924;-0,0519;0,1606;0,3824;0,0086;-0,7074;
16,467793;0,2785;0,3205;0,8697;0,7569;-0,1492;-0,2121;0,3824;0,0086;-0,7074;
16,479614;0,2785;0,3205;0,8697;0,5448;-0,2925;-0,3006;0,3824;0,0086;-0,7074;
16,497017;0,2785;0,3205;0,8697;0,0669;-0,3760;-0,8982;0,3824;0,0086;-0,7074;
16,503862;0,2785;0,3205;0,8697;0,0669;-0,3760;-0,8982;0,1527;0,1210;-0,3873;
16,517229;0,2785;0,3205;0,8697;-0,2312;-0,2304;-1,3525;0,1527;0,1210;-0,3873;
16,522155;0,2042;0,4046;0,7964;-0,2312;-0,2304;-1,3525;0,1527;0,1210;-0,3873;
16,537031;0,2042;0,4046;0,7964;-0,1042;0,1683;-1,0653;0,1527;0,1210;-0,3873;
16,557057;0,2042;0,4046;0,7964;0,2225;0,5024;-0,7636;0,1527;0,1210;-0,3873;
16,569154;0,2042;0,4046;0,7964;0,2225;0,5024;-0,7636;0,2932;0,1026;-0,6329;
16,577111;0,2042;0,4046;0,7964;0,1522;0,4922;-1,0414;0,2932;0,1026;-0,6329;
16,586830;0,1417;0,4222;0,7398;0,1522;0,4922;-1,0414;0,2932;0,1026;-0,6329;
16,597017;0,1417;0,4222;0,7398;-0,2861;0,2898;-1,3902;0,2932;0,1026;-0,6329;
16,617181;0,1417;0,4222;0,7398;-0,6071;0,0305;-1,4535;0,2932;0,1026;-0,6329;
16,632151;0,1417;0,4222;0,7398;-0,6071;0,0305;-1,4535;-0,0281;-0,0171;-0,6512;
16,637069;0,1417;0,4222;0,7398;-0,6143;-0,0058;-1,3042;-0,0281;-0,0171;-0,6512;
16,651843;0,0880;0,4241;0,7876;-0,6143;-0,0058;-1,3042;-0,0281;-0,0171;-0,6512;
16,657046;0,0880;0,4241;0,7876;-0,6780;0,0511;-1,0652;-0,0281;-0,0171;-0,6512;
16,677203;0,0880;0,4241;0,7876;-0,7969;0,0219;-0,9179;-0,0281;-0,0171;-0,6512;
16,697096;0,0880;0,4241;0,7876;-0,8536;-0,0128;-0,6647;-0,0281;-0,0171;-0,6512;
16,700916;0,0880;0,4241;0,7876;-0,8536;-0,0128;-0,6647;-0,0244;0,2957;-0,4826;
16,717424;0,0362;0,4378;0,7632;-0,8536;-0,0128;-0,6647;-0,0244;0,2957;-0,4826;
16,720385;0,0362;0,4378;0,7632;-0,9991;-0,1084;-0,7972;-0,0244;0,2957;-0,4826;
16,737077;0,0362;0,4378;0,7632;-0,8857;0,0502;-1,1815;-0,0244;0,2957;-0,4826;
16,757146;0,0362;0,4378;0,7632;-0,9033;0,1804;-1,0750;-0,0244;0,2957;-0,4826;
16,762114;0,0362;0,4378;0,7632;-0,9033;0,1804;-1,0750;-0,0721;0,1319;-0,1552;
16,777257;0,0362;0,4378;0,7632;-1,0165;0,0557;-0,5478;-0,0721;0,1319;-0,1552;
16,783086;-0,0195;0,4368;0,8775;-1,0165;0,0557;-0,5478;-0,0721;0,1319;-0,1552;
16,797075;-0,0195;0,4368;0,8775;-1,1812;0,0289;-0,1468;-0,0721;0,1319;-0,1552;
16,817286;-0,0195;0,4368;0,8775;-0,9666;0,1600;-0,2359;-0,0721;0,1319;-0,1552;
16,827120;-0,0195;0,4368;0,8775;-0,9666;0,1600;-0,2359;0,1991;0,3311;0,2456;
16,837043;-0,0195;0,4368;0,8775;-0,6283;0,6399;-0,8508;0,1991;0,3311;0,2456;
16,848599;0,1114;0,5707;0,7955;-0,6283;0,6399;-0,8508;0,1991;0,3311;0,2456;
16,856987;0,1114;0,5707;0,7955;0,1594;1,0753;-1,2771;0,1991;0,3311;0,2456;
16,877232;0,1114;0,5707;0,7955;0,3683;1,2294;-0,0491;0,1991;0,3311;0,2456;
16,892322;0,1114;0,5707;0,7955;0,3683;1,2294;-0,0491;0,5241;-0,1246;-0,4545;
16,898113;0,1114;0,5707;0,7955;0,4462;1,0060;2,1362;0,5241;-0,1246;-0,4545;
16,911768;0,0391;0,5023;1,1082;0,4462;1,0060;2,1362;0,5241;-0,1246;-0,4545;
16,917237;0,0391;0,5023;1,1082;-0,0985;0,5518;3,2277;0,5241;-0,1246;-0,4545;
16,937036;0,0391;0,5023;1,1082;-0,4430;0,2804;1,9322;0,5241;-0,1246;-0,4545;
16,956826;0,0391;0,5023;1,1082;-0,6451;0,2910;0,9311;0,5241;-0,1246;-0,4545;
16,959710;0,0391;0,5023;1,1082;-0,6451;0,2910;0,9311;-0,2004;0,8687;-0,0770;
16,977101;-0,0684;0,4759;0,9479;-0,6451;0,2910;0,9311;-0,2004;0,8687;-0,0770;
16,979215;-0,0684;0,4759;0,9479;-0,7010;0,2480;0,6403;-0,2004;0,8687;-0,0770;
16,997053;-0,0684;0,4759;0,9479;-0,9384;0,0073;0,7625;-0,2004;0,8687;-0,0770;
17,017218;-0,0684;0,4759;0,9479;-1,3732;-0,2857;0,9599;-0,2004;0,8687;-0,0770;
17,022162;-0,0684;0,4759;0,9479;-1,3732;-0,2857;0,9599;-0,4215;0,6903;0,2834;
17,037022;-0,0684;0,4759;0,9479;-1,6819;-0,8113;1,0207;-0,4215;0,6903;0,2834;
17,041716;-0,1779;0,3078;1,0310;-1,6819;-0,8113;1,0207;-0,4215;0,6903;0,2834;
17,057014;-0,1779;0,3078;1,0310;-1,5487;-1,2223;1,2161;-0,4215;0,6903;0,2834;
17,077143;-0,1779;0,3078;1,0310;-0,7603;-1,1442;1,7432;-0,4215;0,6903;0,2834;
17,087040;-0,1779;0,3078;1,0310;-0,7603;-1,1442;1,7432;0,1515;0,8063;1,0128;
17,096999;-0,1779;0,3078;1,0310;-0,4823;-0,5381;1,2540;0,1515;0,8063;1,0128;
17,106814;-0,1652;0,3645;0,9010;-0,4823;-0,5381;1,2540;0,1515;0,8063;1,0128;
17,118403;-0,1652;0,3645;0,9010;-0,8347;-0,5471;0,2611;0,1515;0,8063;1,0128;
17,137034;-0,1652;0,3645;0,9010;-1,0451;-0,8283;0,1258;0,1515;0,8063;1,0128;
17,152101;-0,1652;0,3645;0,9010;-1,0451;-0,8283;0,1258;0,3274;0,1772;1,1496;
17,156804;-0,1652;0,3645;0,9010;-1,1019;-1,4507;0,1891;0,3274;0,1772;1,1496;
17,171878;-0,1710;0,2678;0,8883;-1,1019;-1,4507;0,1891;0,3274;0,1772;1,1496;
17,177918;-0,1710;0,2678;0,8883;-1,0890;-1,6349;-0,0185;0,3274;0,1772;1,1496;
17,197127;-0,1710;0,2678;0,8883;-0,9968;-1,6984;0,0904;0,3274;0,1772;1,1496;
17,217371;-0,1710;0,2678;0,8883;-0,6893;-1,7222;0,3658;0,3274;0,1772;1,1496;
17,220524;-0,1710;0,2678;0,8883;-0,6893;-1,7222;0,3658;0,2700;0,1405;1,2669;
17,237065;-0,0625;0,2844;0,8600;-0,6893;-1,7222;0,3658;0,2700;0,1405;1,2669;
17,240339;-0,0625;0,2844;0,8600;-0,5256;-1,7686;0,1133;0,2700;0,1405;1,2669;
17,257322;-0,0625;0,2844;0,8600;-0,1872;-1,5018;-0,2831;0,2700;0,1405;1,2669;
17,278428;-0,0625;0,2844;0,8600;0,0916;-1,1329;-0,6181;0,2700;0,1405;1,2669;
17,284988;-0,0625;0,2844;0,8600;0,0916;-1,1329;-0,6181;-0,1087;0,2883;0,9566;
17,298787;-0,0625;0,2844;0,8600;-0,1825;-1,1200;-0,3852;-0,1087;0,2883;0,9566;
17,315984;-0,0831;0,3088;0,8815;-0,1825;-1,1200;-0,3852;-0,1087;0,2883;0,9566;
17,317854;-0,0831;0,3088;0,8815;-0,5014;-1,2746;-0,0984;-0,1087;0,2883;0,9566;
17,339111;-0,0831;0,3088;0,8815;-0,4392;-1,0506;-0,1556;-0,1087;0,2883;0,9566;
17,347099;-0,0831;0,3088;0,8815;-0,4392;-1,0506;-0,1556;-0,0635;0,2957;0,8137;
17,356807;-0,0831;0,3088;0,8815;-0,5071;-1,0495;-0,2018;-0,0635;0,2957;0,8137;
17,366861;-0,0772;0,3371;0,8492;-0,5071;-1,0495;-0,2018;-0,0635;0,2957;0,8137;
17,377170;-0,0772;0,3371;0,8492;-0,4999;-0,9639;-0,3705;-0,0635;0,2957;0,8137;
17,397091;-0,0772;0,3371;0,8492;-0,5106;-0,8163;-0,4983;-0,0635;0,2957;0,8137;
17,412165;-0,0772;0,3371;0,8492;-0,5106;-0,8163;-0,4983;-0,1869;0,2187;0,7159;
17,417365;-0,0772;0,3371;0,8492;-0,2907;-0,5214;-0,2372;-0,1869;0,2187;0,7159;
17,432104;-0,0498;0,3508;0,8912;-0,2907;-0,5214;-0,2372;-0,1869;0,2187;0,7159;
17,437252;-0,0498;0,3508;0,8912;-0,0765;-0,4414;-0,0565;-0,1869;0,2187;0,7159;
17,457639;-0,0498;0,3508;0,8912;-0,3705;-0,6704;-0,1448;-0,1869;0,2187;0,7159;
17,478271;-0,0498;0,3508;0,8912;-0,5465;-0,8776;-0,3626;-0,1869;0,2187;0,7159;
17,493173;-0,0498;0,3508;0,8912;-0,5465;-0,8776;-0,3626;-0,3726;-0,0024;0,7782;
17,502032;-0,0078;0,3323;0,9489;-0,5465;-0,8776;-0,3626;-0,3726;-0,0024;0,7782;
17,509153;-0,0078;0,3323;0,9489;-0,3268;-0,7320;-0,2482;-0,3726;-0,0024;0,7782;
17,517134;-0,0078;0,3323;0,9489;0,0816;-0,5500;0,3602;-0,3726;-0,0024;0,7782;
17,537204;-0,0078;0,3323;0,9489;0,0679;-0,3837;0,9026;-0,3726;-0,0024;0,7782;
17,542073;-0,0078;0,3323;0,9489;0,0679;-0,3837;0,9026;-0,0867;0,0819;0,7245;
17,557067;-0,0078;0,3323;0,9489;-0,1591;-0,4819;1,2550;-0,0867;0,0819;0,7245;
17,561926;-0,0938;0,2834;1,0388;-0,1591;-0,4819;1,2550;-0,0867;0,0819;0,7245;
17,577100;-0,0938;0,2834;1,0388;-0,7302;-0,7386;1,1714;-0,0867;0,0819;0,7245;
17,597061;-0,0938;0,2834;1,0388;-1,2981;-0,5810;0,5866;-0,0867;0,0819;0,7245;
17,607242;-0,0938;0,2834;1,0388;-1,2981;-0,5810;0,5866;-0,1197;-0,1564;0,9444;
17,617416;-0,0938;0,2834;1,0388;-0,9796;-0,4169;-1,1810;-0,1197;-0,1564;0,9444;
17,627095;-0,0362;0,3450;0,9284;-0,9796;-0,4169;-1,1810;-0,1197;-0,1564;0,9444;
17,636892;-0,0362;0,3450;0,9284;-0,4848;-0,1656;-0,8426;-0,1197;-0,1564;0,9444;
17,657052;-0,0362;0,3450;0,9284;-0,2330;-0,5275;0,9485;-0,1197;-0,1564;0,9444;
17,672136;-0,0362;0,3450;0,9284;-0,2330;-0,5275;0,9485;-0,7672;0,3616;1,1411;
17,677230;-0,0362;0,3450;0,9284;0,0874;-0,7859;1,5865;-0,7672;0,3616;1,1411;
17,691943;0,1222;0,2365;0,9284;0,0874;-0,7859;1,5865;-0,7672;0,3616;1,1411;
17,696803;0,1222;0,2365;0,9284;0,3531;-0,5375;0,8120;-0,7672;0,3616;1,1411;
17,718147;0,1222;0,2365;0,9284;0,8816;-0,7519;-0,2387;-0,7672;0,3616;1,1411;
17,738079;0,1222;0,2365;0,9284;0,3943;-1,1293;0,4171;-0,7672;0,3616;1,1411;
17,741134;0,1222;0,2365;0,9284;0,3943;-1,1293;0,4171;-0,9896;0,1649;1,5003;
17,758077;-0,0020;0,0166;1,1414;0,3943;-1,1293;0,4171;-0,9896;0,1649;1,5003;
17,765168;-0,0020;0,0166;1,1414;-0,2915;-1,6396;2,0436;-0,9896;0,1649;1,5003;
17,778219;-0,0020;0,0166;1,1414;-0,4560;-2,0326;1,7257;-0,9896;0,1649;1,5003;
17,798276;-0,0020;0,0166;1,1414;-0,1645;-1,8636;0,1878;-0,9896;0,1649;1,5003;
17,809339;-0,0020;0,0166;1,1414;-0,1645;-1,8636;0,1878;-0,5351;0,6316;2,6035;
17,818500;-0,0020;0,0166;1,1414;1,2911;-0,5490;-1,3525;-0,5351;0,6316;2,6035;
17,831827;0,3283;0,1847;0,8365;1,2911;-0,5490;-1,3525;-0,5351;0,6316;2,6035;
17,838095;0,3283;0,1847;0,8365;2,6650;0,0972;-1,5358;-0,5351;0,6316;2,6035;
17,856797;0,3283;0,1847;0,8365;2,3087;-0,3469;-0,5604;-0,5351;0,6316;2,6035;
17,867252;0,3283;0,1847;0,8365;2,3087;-0,3469;-0,5604;0,1759;-0,2737;1,8497;
17,877233;0,3283;0,1847;0,8365;1,6479;-1,3648;0,2178;0,1759;-0,2737;1,8497;
17,886858;0,2424;0,0684;0,8727;1,6479;-1,3648;0,2178;0,1759;-0,2737;1,8497;
17,896969;0,2424;0,0684;0,8727;1,4938;-1,0914;-0,1690;0,1759;-0,2737;1,8497;
17,917178;0,2424;0,0684;0,8727;0,7929;-0,7434;-2,0666;0,1759;-0,2737;1,8497;
17,932227;0,2424;0,0684;0,8727;0,7929;-0,7434;-2,0666;-0,0696;1,4930;1,0727;
17,936879;0,2424;0,0684;0,8727;-0,2620;-0,6003;-1,5265;-0,0696;1,4930;1,0727;
17,952268;0,7114;0,1309;0,9616;-0,2620;-0,6003;-1,5265;-0,0696;1,4930;1,0727;
17,956999;0,7114;0,1309;0,9616;4,0791;-1,8215;0,0424;-0,0696;1,4930;1,0727;
17,977166;0,7114;0,1309;0,9616;4,8214;0,4600;0,2379;-0,0696;1,4930;1,0727;
17,997098;0,7114;0,1309;0,9616;-0,7210;0,8684;0,7783;-0,0696;1,4930;1,0727;
18,000748;0,7114;0,1309;0,9616;-0,7210;0,8684;0,7783;-0,0867;-0,5901;0,9053;
18,017083;0,0127;0,0039;1,0613;-0,7210;0,8684;0,7783;-0,0867;-0,5901;0,9053;
18,019683;0,0127;0,0039;1,0613;-0,6769;-1,3522;0,1904;-0,0867;-0,5901;0,9053;
18,037010;0,0127;0,0039;1,0613;-1,0755;-1,0945;0,8200;-0,0867;-0,5901;0,9053;
18,057000;0,0127;0,0039;1,0613;1,1707;0,3288;2,3673;-0,0867;-0,5901;0,9053;
18,062139;0,0127;0,0039;1,0613;1,1707;0,3288;2,3673;-0,5363;1,7520;0,7550;
18,077277;0,0127;0,0039;1,0613;1,1223;0,9322;2,9587;-0,5363;1,7520;0,7550;
18,081870;0,0694;0,1427;1,0642;1,1223;0,9322;2,9587;-0,5363;1,7520;0,7550;
18,096952;0,0694;0,1427;1,0642;0,1876;0,7350;1,2020;-0,5363;1,7520;0,7550;
18,117014;0,0694;0,1427;1,0642;-0,7418;-0,2062;0,7384;-0,5363;1,7520;0,7550;
18,127005;0,0694;0,1427;1,0642;-0,7418;-0,2062;0,7384;0,6683;-0,7074;2,3628;
18,136829;0,0694;0,1427;1,0642;-1,3036;-1,4901;1,5102;0,6683;-0,7074;2,3628;
18,146686;0,0020;0,0498;1,0476;-1,3036;-1,4901;1,5102;0,6683;-0,7074;2,3628;
18,156805;0,0020;0,0498;1,0476;-0,7393;-0,4964;1,1942;0,6683;-0,7074;2,3628;
18,176838;0,0020;0,0498;1,0476;-0,4103;-0,4159;0,0670;0,6683;-0,7074;2,3628;
18,192101;0,0020;0,0498;1,0476;-0,4103;-0,4159;0,0670;1,8118;0,2334;2,8650;
18,197154;0,0020;0,0498;1,0476;0,3139;-1,0043;0,3620;1,8118;0,2334;2,8650;
18,212060;0,2169;0,0831;1,0095;0,3139;-1,0043;0,3620;1,8118;0,2334;2,8650;
18,217416;0,2169;0,0831;1,0095;0,1303;-0,4432;2,2389;1,8118;0,2334;2,8650;
18,237447;0,2169;0,0831;1,0095;1,2965;-0,5321;-0,2603;1,8118;0,2334;2,8650;
18,257498;0,2169;0,0831;1,0095;0,6986;-0,4727;-1,0805;1,8118;0,2334;2,8650;
18,262366;0,2169;0,0831;1,0095;0,6986;-0,4727;-1,0805;2,0940;3,4245;2,7672;
18,278315;0,0752;0,1700;1,1824;0,6986;-0,4727;-1,0805;2,0940;3,4245;2,7672;
18,286120;0,0752;0,1700;1,1824;0,2255;-0,6939;1,3502;2,0940;3,4245;2,7672;
18,301960;0,0752;0,1700;1,1824;0,9918;-0,6562;2,1503;2,0940;3,4245;2,7672;
18,317189;0,0752;0,1700;1,1824;1,5813;-1,1632;0,3655;2,0940;3,4245;2,7672;
18,322004;0,0752;0,1700;1,1824;1,5813;-1,1632;0,3655;2,2822;1,8033;3,1166;
18,336992;0,0752;0,1700;1,1824;0,9333;-2,1086;-0,6023;2,2822;1,8033;3,1166;
18,341663;0,0186;0,2873;0,5277;0,9333;-2,1086;-0,6023;2,2822;1,8033;3,1166;
18,357179;0,0186;0,2873;0,5277;0,8585;-0,9280;-3,6021;2,2822;1,8033;3,1166;
18,377226;0,0186;0,2873;0,5277;1,8782;-1,0015;-2,3043;2,2822;1,8033;3,1166;
18,387234;0,0186;0,2873;0,5277;1,8782;-1,0015;-2,3043;-1,7434;0,3873;2,1454;
18,396835;0,0186;0,2873;0,5277;3,0843;0,1686;-2,0340;-1,7434;0,3873;2,1454;
18,406885;0,2023;0,3762;0,6655;3,0843;0,1686;-2,0340;-1,7434;0,3873;2,1454;
18,417156;0,2023;0,3762;0,6655;2,1136;0,3458;-2,0766;-1,7434;0,3873;2,1454;
18,437278;0,2023;0,3762;0,6655;2,6597;-0,5900;-2,4693;-1,7434;0,3873;2,1454;
18,452089;0,2023;0,3762;0,6655;2,6597;-0,5900;-2,4693;-4,0745;0,1087;0,7819;
18,456812;0,2023;0,3762;0,6655;1,5037;-0,8599;-0,6648;-4,0745;0,1087;0,7819;
18,471712;-0,1681;0,0401;1,3163;1,5037;-0,8599;-0,6648;-4,0745;0,1087;0,7819;
18,480288;-0,1681;0,0401;1,3163;-0,6278;-1,6836;2,1362;-4,0745;0,1087;0,7819;
18,497057;-0,1681;0,0401;1,3163;-1,7296;-0,7261;3,7543;-4,0745;0,1087;0,7819;
18,517269;-0,1681;0,0401;1,3163;-1,4668;-0,2289;4,4369;-4,0745;0,1087;0,7819;
18,520183;-0,1681;0,0401;1,3163;-1,4668;-0,2289;4,4369;0,6439;-0,0489;1,6335;
18,536979;0,1046;0,0303;1,0007;-1,4668;-0,2289;4,4369;0,6439;-0,0489;1,6335;
18,538972;0,1046;0,0303;1,0007;-0,2179;-0,4592;3,0429;0,6439;-0,0489;1,6335;
18,557041;0,1046;0,0303;1,0007;1,1795;-0,6936;0,1440;0,6439;-0,0489;1,6335;
18,577155;0,1046;0,0303;1,0007;1,0335;-0,5321;-0,9466;0,6439;-0,0489;1,6335;
18,581941;0,1046;0,0303;1,0007;1,0335;-0,5321;-0,9466;-0,2260;-0,2615;-0,4386;
18,596882;0,1046;0,0303;1,0007;-0,0166;-0,5709;0,1345;-0,2260;-0,2615;-0,4386;
18,602042;-0,1583;0,1300;1,0437;-0,0166;-0,5709;0,1345;-0,2260;-0,2615;-0,4386;
18,617379;-0,1583;0,1300;1,0437;-1,2452;0,1087;0,7366;-0,2260;-0,2615;-0,4386;
18,637076;-0,1583;0,1300;1,0437;-2,4647;0,1324;-0,3229;-0,2260;-0,2615;-0,4386;
18,647367;-0,1583;0,1300;1,0437;-2,4647;0,1324;-0,3229;-0,5021;0,5388;0,9139;
18,656894;-0,1583;0,1300;1,0437;-2,2334;-0,8578;-0,8009;-0,5021;0,5388;0,9139;
18,666892;-0,1261;-0,0772;1,0163;-2,2334;-0,8578;-0,8009;-0,5021;0,5388;0,9139;
18,677130;-0,1261;-0,0772;1,0163;-1,3920;-1,5225;-0,4523;-0,5021;0,5388;0,9139;
18,697017;-0,1261;-0,0772;1,0163;-0,5027;-1,4060;0,7876;-0,5021;0,5388;0,9139;
18,712413;-0,1261;-0,0772;1,0163;-0,5027;-1,4060;0,7876;0,2138;-0,0257;0,8222;
18,717513;-0,1261;-0,0772;1,0163;-0,3733;-0,8043;0,8915;0,2138;-0,0257;0,8222;
18,732440;-0,0752;0,0303;0,9811;-0,3733;-0,8043;0,8915;0,2138;-0,0257;0,8222;
18,737461;-0,0752;0,0303;0,9811;-0,6250;-0,5404;0,2299;0,2138;-0,0257;0,8222;
18,760175;-0,0752;0,0303;0,9811;-0,4020;-0,1442;-0,0292;0,2138;-0,0257;0,8222;
18,780626;-0,0752;0,0303;0,9811;-0,4143;-0,2326;0,4170;0,2138;-0,0257;0,8222;
18,796345;-0,0752;0,0303;0,9811;-0,4143;-0,2326;0,4170;1,3292;0,5363;1,1044;
18,800993;-0,0479;0,1261;0,9127;-0,4143;-0,2326;0,4170;1,3292;0,5363;1,1044;
18,802948;-0,0479;0,1261;0,9127;-0,4325;-0,1834;-0,1126;1,3292;0,5363;1,1044;
18,818929;-0,0479;0,1261;0,9127;0,1910;-0,0767;-0,6608;1,3292;0,5363;1,1044;
18,838624;-0,0479;0,1261;0,9127;0,3834;-0,1735;-1,1239;1,3292;0,5363;1,1044;
18,844623;-0,0479;0,1261;0,9127;0,3834;-0,1735;-1,1239;0,7819;0,6524;1,1435;
18,858535;-0,0479;0,1261;0,9127;0,7469;-0,3165;-1,4912;0,7819;0,6524;1,1435;
18,872011;0,0156;0,1554;0,8570;0,7469;-0,3165;-1,4912;0,7819;0,6524;1,1435;
18,878841;0,0156;0,1554;0,8570;1,0084;-0,4955;-1,2863;0,7819;0,6524;1,1435;
18,897019;0,0156;0,1554;0,8570;0,5912;-0,0181;-1,0380;0,7819;0,6524;1,1435;
18,907687;0,0156;0,1554;0,8570;0,5912;-0,0181;-1,0380;-0,0757;0,4288;0,8882;
18,917282;0,0156;0,1554;0,8570;0,1651;0,3030;-0,8975;-0,0757;0,4288;0,8882;
18,926876;-0,0811;0,2609;0,8775;0,1651;0,3030;-0,8975;-0,0757;0,4288;0,8882;
18,936964;-0,0811;0,2609;0,8775;0,0475;0,3734;-0,8513;-0,0757;0,4288;0,8882;
18,957061;-0,0811;0,2609;0,8775;0,4147;0,2018;-0,7391;-0,0757;0,4288;0,8882;
18,973590;-0,0811;0,2609;0,8775;0,4147;0,2018;-0,7391;-0,8674;0,0635;0,8845;
18,977123;-0,0811;0,2609;0,8775;0,4817;0,1392;-0,3860;-0,8674;0,0635;0,8845;
18,992103;-0,0606;0,1954;1,0681;0,4817;0,1392;-0,3860;-0,8674;0,0635;0,8845;
18,997134;-0,0606;0,1954;1,0681;0,4782;0,1930;0,3842;-0,8674;0,0635;0,8845;
19,017178;-0,0606;0,1954;1,0681;0,3107;-0,0573;1,2670;-0,8674;0,0635;0,8845;
19,036978;-0,0606;0,1954;1,0681;0,2259;-0,2277;1,6986;-0,8674;0,0635;0,8845;
19,040360;-0,0606;0,1954;1,0681;0,2259;-0,2277;1,6986;-0,0134;-0,2529;0,8100;
19,057961;-0,1691;0,1642;1,2391;0,2259;-0,2277;1,6986;-0,0134;-0,2529;0,8100;
19,061246;-0,1691;0,1642;1,2391;-0,2111;0,1514;2,8236;-0,0134;-0,2529;0,8100;
19,077178;-0,1691;0,1642;1,2391;-0,8683;-0,0063;2,5932;-0,0134;-0,2529;0,8100;
19,097038;-0,1691;0,1642;1,2391;-0,9702;-0,0328;1,2065;-0,0134;-0,2529;0,8100;
19,102102;-0,1691;0,1642;1,2391;-0,9702;-0,0328;1,2065;1,0079;-0,6524;0,8748;
19,117187;-0,1691;0,1642;1,2391;-0,4910;-0,1427;-0,5790;1,0079;-0,6524;0,8748;
19,122804;-0,0274;0,2081;0,7280;-0,4910;-0,1427;-0,5790;1,0079;-0,6524;0,8748;
19,138463;-0,0274;0,2081;0,7280;0,0709;-0,1780;-2,0542;1,0079;-0,6524;0,8748;
19,156989;-0,0274;0,2081;0,7280;0,3362;-0,1090;-2,9302;1,0079;-0,6524;0,8748;
19,167064;-0,0274;0,2081;0,7280;0,3362;-0,1090;-2,9302;-0,3897;-0,2773;0,3348;
19,177351;-0,0274;0,2081;0,7280;0,5310;0,0456;-2,3109;-0,3897;-0,2773;0,3348;
19,188186;0,0704;0,2746;0,8091;0,5310;0,0456;-2,3109;-0,3897;-0,2773;0,3348;
19,197540;0,0704;0,2746;0,8091;0,7048;0,1419;-1,9361;-0,3897;-0,2773;0,3348;
19,217645;0,0704;0,2746;0,8091;0,3561;0,4558;-1,1828;-0,3897;-0,2773;0,3348;
19,232519;0,0704;0,2746;0,8091;0,3561;0,4558;-1,1828;-0,4288;0,3238;0,3604;
19,242487;0,0704;0,2746;0,8091;-0,0424;0,3536;-0,6978;-0,4288;0,3238;0,3604;
19,257558;0,0117;0,2257;0,9557;-0,0424;0,3536;-0,6978;-0,4288;0,3238;0,3604;
19,264732;0,0117;0,2257;0,9557;0,0051;0,1991;-0,3500;-0,4288;0,3238;0,3604;
19,278319;0,0117;0,2257;0,9557;-0,0231;0,0215;0,0724;-0,4288;0,3238;0,3604;
19,298312;0,0117;0,2257;0,9557;-0,5482;0,3782;0,7271;-0,4288;0,3238;0,3604;
19,311461;0,0117;0,2257;0,9557;-0,5482;0,3782;0,7271;-0,0318;-0,1442;0,4740;
19,317209;-0,0391;0,2580;0,9440;-0,5482;0,3782;0,7271;-0,0318;-0,1442;0,4740;
19,318638;-0,0391;0,2580;0,9440;-0,7509;0,5625;0,3782;-0,0318;-0,1442;0,4740;
19,336877;-0,0391;0,2580;0,9440;-0,2953;0,4043;-0,2329;-0,0318;-0,1442;0,4740;
