
time;gFx;gFy;gFz;ax;ay;az;wx;wy;wz;
0,036372;0,0000;0,0000;0,0000;-0,5996;0,2784;-0,1541;0,0000;0,0000;0,0000;
0,057119;0,0000;0,0000;0,0000;-0,5996;0,2784;-0,1541;0,0000;0,0000;0,0000;
0,076045;0,0088;0,1114;1,1834;-0,5996;0,2784;-0,1541;0,0000;0,0000;0,0000;
0,077371;0,0088;0,1114;1,1834;-0,5996;0,2784;-0,1541;0,0000;0,0000;0,0000;
0,095868;0,0088;0,1114;1,1834;-0,5996;0,2784;-0,1541;0,0000;0,0000;0,0000;
0,115817;0,0088;0,1114;1,1834;-0,5996;0,2784;-0,1541;0,0000;0,0000;0,0000;
0,136303;0,0088;0,1114;1,1834;-0,5996;0,2784;-0,1541;0,0000;0,0000;0,0000;
0,140749;0,7466;0,5814;0,9821;-0,5996;0,2784;-0,1541;0,0000;0,0000;0,0000;
0,156717;0,7466;0,5814;0,9821;-0,5996;0,2784;-0,1541;0,0000;0,0000;0,0000;
0,175908;0,7466;0,5814;0,9821;-0,5996;0,2784;-0,1541;0,0000;0,0000;0,0000;
0,196101;0,7466;0,5814;0,9821;-0,5996;0,2784;-0,1541;0,0000;0,0000;0,0000;
0,206149;0,4378;0,5297;0,7681;-0,5996;0,2784;-0,1541;0,0000;0,0000;0,0000;
0,215927;0,4378;0,5297;0,7681;-0,5996;0,2784;-0,1541;0,0000;0,0000;0,0000;
0,236474;0,4378;0,5297;0,7681;-0,5996;0,2784;-0,1541;0,0000;0,0000;0,0000;
0,256803;0,4378;0,5297;0,7681;-0,5996;0,2784;-0,1541;0,0000;0,0000;0,0000;
0,274236;0,4583;0,5355;0,4642;-0,5996;0,2784;-0,1541;0,0000;0,0000;0,0000;
0,278075;0,4583;0,5355;0,4642;-0,5996;0,2784;-0,1541;0,0000;0,0000;0,0000;
0,297038;0,4583;0,5355;0,4642;-0,5996;0,2784;-0,1541;0,0000;0,0000;0,0000;
0,316955;0,4583;0,5355;0,4642;-0,5996;0,2784;-0,1541;0,0000;0,0000;0,0000;
0,340989;0,2404;0,5062;0,8834;-0,5996;0,2784;-0,1541;0,0000;0,0000;0,0000;
0,346926;0,2404;0,5062;0,8834;-0,5996;0,2784;-0,1541;0,0000;0,0000;0,0000;
0,356610;0,2404;0,5062;0,8834;1,7171;-1,3876;1,3168;0,0000;0,0000;0,0000;
0,376274;0,2404;0,5062;0,8834;3,1983;-1,2059;1,2306;0,0000;0,0000;0,0000;
0,381401;0,2404;0,5062;0,8834;3,1983;-1,2059;1,2306;-0,8247;-0,9872;-0,2590;
0,396444;0,2404;0,5062;0,8834;2,9923;-0,6191;-0,7297;-0,8247;-0,9872;-0,2590;
0,401052;0,5052;0,5590;0,8111;2,9923;-0,6191;-0,7297;-0,8247;-0,9872;-0,2590;
0,416232;0,5052;0,5590;0,8111;3,3697;-0,5253;0,0473;-0,8247;-0,9872;-0,2590;
0,437262;0,5052;0,5590;0,8111;2,5415;-0,3147;0,8780;-0,8247;-0,9872;-0,2590;
0,446392;0,5052;0,5590;0,8111;2,5415;-0,3147;0,8780;0,3311;-1,5455;0,1466;
0,456311;0,5052;0,5590;0,8111;0,5225;-0,1219;0,0403;0,3311;-1,5455;0,1466;
0,466278;0,2981;0,6606;0,7622;0,5225;-0,1219;0,0403;0,3311;-1,5455;0,1466;
0,476249;0,2981;0,6606;0,7622;-0,2024;0,2364;0,2164;0,3311;-1,5455;0,1466;
0,496422;0,2981;0,6606;0,7622;1,7035;-0,2881;0,0734;0,3311;-1,5455;0,1466;
0,511392;0,2981;0,6606;0,7622;1,7035;-0,2881;0,0734;-0,5058;0,0073;-0,0599;
0,516106;0,2981;0,6606;0,7622;0,8780;0,2081;-0,7145;-0,5058;0,0073;-0,0599;
0,531383;0,2384;0,7867;0,7495;0,8780;0,2081;-0,7145;-0,5058;0,0073;-0,0599;
0,536433;0,2384;0,7867;0,7495;-0,3461;1,2721;-0,8110;-0,5058;0,0073;-0,0599;
0,556331;0,2384;0,7867;0,7495;-0,3548;1,6710;0,7772;-0,5058;0,0073;-0,0599;
0,576241;0,2384;0,7867;0,7495;0,6752;0,7867;1,3130;-0,5058;0,0073;-0,0599;
0,578678;0,2384;0,7867;0,7495;0,6752;0,7867;1,3130;-0,0562;0,2541;0,0281;
0,596362;0,3762;0,6166;0,7446;0,6752;0,7867;1,3130;-0,0562;0,2541;0,0281;
0,597852;0,3762;0,6166;0,7446;0,7334;0,3161;0,2258;-0,0562;0,2541;0,0281;
0,616351;0,3762;0,6166;0,7446;0,8357;0,0422;0,2033;-0,0562;0,2541;0,0281;
0,636432;0,3762;0,6166;0,7446;1,1708;0,0063;0,5989;-0,0562;0,2541;0,0281;
0,641292;0,3762;0,6166;0,7446;1,1708;0,0063;0,5989;0,1710;0,3580;-0,1784;
0,656439;0,3762;0,6166;0,7446;0,5921;0,0046;-0,5814;0,1710;0,3580;-0,1784;
0,661118;0,3068;0,6029;0,5863;0,5921;0,0046;-0,5814;0,1710;0,3580;-0,1784;
0,676284;0,3068;0,6029;0,5863;0,0752;-0,1638;-1,2629;0,1710;0,3580;-0,1784;
0,696415;0,3068;0,6029;0,5863;0,1978;-0,1793;-1,2993;0,1710;0,3580;-0,1784;
0,706444;0,3068;0,6029;0,5863;0,1978;-0,1793;-1,2993;0,3433;-0,2834;-0,3897;
0,717914;0,3068;0,6029;0,5863;0,1599;-0,4046;-1,5356;0,3433;-0,2834;-0,3897;
0,726341;0,3655;0,6303;0,4446;0,1599;-0,4046;-1,5356;0,3433;-0,2834;-0,3897;
0,736428;0,3655;0,6303;0,4446;0,5322;-0,0457;-2,4671;0,3433;-0,2834;-0,3897;
0,756277;0,3655;0,6303;0,4446;0,6744;-0,4559;-2,2795;0,3433;-0,2834;-0,3897;
0,771630;0,3655;0,6303;0,4446;0,6744;-0,4559;-2,2795;0,0159;-0,4899;-0,1918;
0,776204;0,3655;0,6303;0,4446;0,2644;-1,0246;-1,3608;0,0159;-0,4899;-0,1918;
0,791190;0,3899;0,5433;0,6645;0,2644;-1,0246;-1,3608;0,0159;-0,4899;-0,1918;
0,796251;0,3899;0,5433;0,6645;-0,1092;-1,5704;-0,5125;0,0159;-0,4899;-0,1918;
0,816181;0,3899;0,5433;0,6645;1,0923;-1,0720;0,0241;0,0159;-0,4899;-0,1918;
0,836766;0,3899;0,5433;0,6645;1,2792;-0,9786;0,7010;0,0159;-0,4899;-0,1918;
0,842931;0,3899;0,5433;0,6645;1,2792;-0,9786;0,7010;0,3629;-0,7172;0,2908;
0,856152;0,4769;0,5443;0,6606;1,2792;-0,9786;0,7010;0,3629;-0,7172;0,2908;
0,858361;0,4769;0,5443;0,6606;0,8229;-0,8636;0,6674;0,3629;-0,7172;0,2908;
0,876256;0,4769;0,5443;0,6606;1,1171;-0,9444;-0,0432;0,3629;-0,7172;0,2908;
0,898690;0,4769;0,5443;0,6606;1,6225;-0,6509;0,5379;0,3629;-0,7172;0,2908;
0,903565;0,4769;0,5443;0,6606;1,6225;-0,6509;0,5379;0,1662;-0,5791;0,4581;
0,916201;0,4769;0,5443;0,6606;0,9075;-0,9180;0,8795;0,1662;-0,5791;0,4581;
0,921231;0,4231;0,5844;0,7437;0,9075;-0,9180;0,8795;0,1662;-0,5791;0,4581;
0,936674;0,4231;0,5844;0,7437;0,0688;-0,4926;1,0028;0,1662;-0,5791;0,4581;
0,956375;0,4231;0,5844;0,7437;-0,6071;-0,1333;0,7279;0,1662;-0,5791;0,4581;
0,966796;0,4231;0,5844;0,7437;-0,6071;-0,1333;0,7279;0,4191;-1,9083;1,0287;
0,976551;0,4231;0,5844;0,7437;-1,6201;-0,3089;0,6932;0,4191;-1,9083;1,0287;
0,986720;0,5013;0,5942;0,8473;-1,6201;-0,3089;0,6932;0,4191;-1,9083;1,0287;
0,999677;0,5013;0,5942;0,8473;-0,1378;-0,2187;1,8039;0,4191;-1,9083;1,0287;
1,016542;0,5013;0,5942;0,8473;-0,3681;-0,1019;2,4826;0,4191;-1,9083;1,0287;
1,032399;0,5013;0,5942;0,8473;-0,3681;-0,1019;2,4826;0,4533;0,0269;1,0458;
1,037191;0,5013;0,5942;0,8473;-0,7427;0,1656;1,7927;0,4533;0,0269;1,0458;
1,052307;0,6088;0,7144;0,6557;-0,7427;0,1656;1,7927;0,4533;0,0269;1,0458;
1,056445;0,6088;0,7144;0,6557;0,3974;0,9589;1,8632;0,4533;0,0269;1,0458;
1,076666;0,6088;0,7144;0,6557;0,6674;1,1537;0,4874;0,4533;0,0269;1,0458;
1,097569;0,6088;0,7144;0,6557;0,8596;1,1265;-0,7592;0,4533;0,0269;1,0458;
1,102991;0,6088;0,7144;0,6557;0,8596;1,1265;-0,7592;0,6280;0,1649;0,5986;
1,116602;0,7007;0,6850;0,2551;0,8596;1,1265;-0,7592;0,6280;0,1649;0,5986;
1,119048;0,7007;0,6850;0,2551;0,9654;0,9660;-2,2480;0,6280;0,1649;0,5986;
1,136726;0,7007;0,6850;0,2551;1,1163;0,7357;-2,5747;0,6280;0,1649;0,5986;
1,156503;0,7007;0,6850;0,2551;1,4385;0,5676;-1,2809;0,6280;0,1649;0,5986;
1,164515;0,7007;0,6850;0,2551;1,4385;0,5676;-1,2809;0,3848;0,3360;0,1600;
1,176541;0,7007;0,6850;0,2551;1,6005;0,2787;-1,3084;0,3848;0,3360;0,1600;
1,184772;0,7759;0,6039;0,3733;1,6005;0,2787;-1,3084;0,3848;0,3360;0,1600;
1,197107;0,7759;0,6039;0,3733;1,6422;-0,0225;-1,2374;0,3848;0,3360;0,1600;
1,216791;0,7759;0,6039;0,3733;1,8385;0,0659;-1,6092;0,3848;0,3360;0,1600;
1,229905;0,7759;0,6039;0,3733;1,8385;0,0659;-1,6092;0,3787;-0,0831;-0,0880;
1,236693;0,7759;0,6039;0,3733;1,1686;-0,3068;-2,1552;0,3787;-0,0831;-0,0880;
1,246405;0,7016;0,5678;0,2590;1,1686;-0,3068;-2,1552;0,3787;-0,0831;-0,0880;
1,256587;0,7016;0,5678;0,2590;0,8329;-0,4135;-2,1529;0,3787;-0,0831;-0,0880;
1,278950;0,7016;0,5678;0,2590;0,8262;-0,6200;-1,5751;0,3787;-0,0831;-0,0880;
1,291871;0,7016;0,5678;0,2590;0,8262;-0,6200;-1,5751;-0,0464;0,2150;-0,2456;
1,298417;0,7016;0,5678;0,2590;1,1744;-0,4891;-1,0083;-0,0464;0,2150;-0,2456;
1,312772;0,6987;0,5873;0,3235;1,1744;-0,4891;-1,0083;-0,0464;0,2150;-0,2456;
1,316623;0,6987;0,5873;0,3235;0,9878;-0,3932;-0,9782;-0,0464;0,2150;-0,2456;
1,336758;0,6987;0,5873;0,3235;0,6129;-0,4764;-1,0792;-0,0464;0,2150;-0,2456;
1,356629;0,6987;0,5873;0,3235;0,3765;-0,6028;-0,5986;-0,0464;0,2150;-0,2456;
1,362383;0,6987;0,5873;0,3235;0,3765;-0,6028;-0,5986;-0,1527;-0,0586;-0,2126;
1,377352;0,6655;0,5834;0,4583;0,3765;-0,6028;-0,5986;-0,1527;-0,0586;-0,2126;
1,379936;0,6655;0,5834;0,4583;0,3239;-0,6122;-0,1708;-0,1527;-0,0586;-0,2126;
1,396880;0,6655;0,5834;0,4583;0,3811;-0,4178;0,1296;-0,1527;-0,0586;-0,2126;
1,416740;0,6655;0,5834;0,4583;0,4936;-0,4253;0,2024;-0,1527;-0,0586;-0,2126;
1,421778;0,6655;0,5834;0,4583;0,4936;-0,4253;0,2024;-0,0709;0,1258;-0,1991;
1,436798;0,6655;0,5834;0,4583;0,1271;-0,4887;0,4334;-0,0709;0,1258;-0,1991;
1,444746;0,5590;0,5902;0,4661;0,1271;-0,4887;0,4334;-0,0709;0,1258;-0,1991;
1,457056;0,5590;0,5902;0,4661;-0,5121;-0,4293;0,2808;-0,0709;0,1258;-0,1991;
1,477225;0,5590;0,5902;0,4661;-0,5099;-0,2444;-0,2430;-0,0709;0,1258;-0,1991;
1,486763;0,5590;0,5902;0,4661;-0,5099;-0,2444;-0,2430;-0,1820;-0,0599;-0,0428;
1,496989;0,5590;0,5902;0,4661;-0,2903;-0,1322;-0,0469;-0,1820;-0,0599;-0,0428;
1,510246;0,5922;0,6176;0,5179;-0,2903;-0,1322;-0,0469;-0,1820;-0,0599;-0,0428;
1,517429;0,5922;0,6176;0,5179;-0,3167;-0,2011;0,3107;-0,1820;-0,0599;-0,0428;
1,536848;0,5922;0,6176;0,5179;-0,2599;-0,0611;0,8196;-0,1820;-0,0599;-0,0428;
1,551895;0,5922;0,6176;0,5179;-0,2599;-0,0611;0,8196;-0,0525;-0,0525;-0,0293;
1,559768;0,5922;0,6176;0,5179;0,0088;0,0729;0,6964;-0,0525;-0,0525;-0,0293;
1,571860;0,5795;0,6332;0,4886;0,0088;0,0729;0,6964;-0,0525;-0,0525;-0,0293;
1,579470;0,5795;0,6332;0,4886;-0,1711;0,0669;0,1111;-0,0525;-0,0525;-0,0293;
1,596755;0,5795;0,6332;0,4886;-0,3169;0,0771;0,3475;-0,0525;-0,0525;-0,0293;
1,616683;0,5795;0,6332;0,4886;-0,0967;-0,0134;0,4297;-0,0525;-0,0525;-0,0293;
1,618876;0,5795;0,6332;0,4886;-0,0967;-0,0134;0,4297;-0,0538;-0,0440;-0,0086;
1,636764;0,6733;0,6196;0,5052;-0,0967;-0,0134;0,4297;-0,0538;-0,0440;-0,0086;
1,641154;0,6733;0,6196;0,5052;0,0475;-0,0224;0,1738;-0,0538;-0,0440;-0,0086;
1,658455;0,6733;0,6196;0,5052;0,5523;-0,0645;0,4396;-0,0538;-0,0440;-0,0086;
1,676679;0,6733;0,6196;0,5052;0,6388;-0,0890;0,5328;-0,0538;-0,0440;-0,0086;
1,683707;0,6733;0,6196;0,5052;0,6388;-0,0890;0,5328;0,1417;-0,2236;-0,1796;
1,696836;0,6733;0,6196;0,5052;0,3604;0,1141;-0,4277;0,1417;-0,2236;-0,1796;
1,701532;0,6753;0,6518;0,3547;0,3604;0,1141;-0,4277;0,1417;-0,2236;-0,1796;
1,716670;0,6753;0,6518;0,3547;0,4866;0,1632;-0,8618;0,1417;-0,2236;-0,1796;
1,736795;0,6753;0,6518;0,3547;0,4484;-0,1081;-0,4723;0,1417;-0,2236;-0,1796;
1,747497;0,6753;0,6518;0,3547;0,4484;-0,1081;-0,4723;-0,1772;0,1307;-0,1662;
1,756785;0,6753;0,6518;0,3547;0,0155;-0,1495;0,2854;-0,1772;0,1307;-0,1662;
1,766616;0,5756;0,6499;0,4974;0,0155;-0,1495;0,2854;-0,1772;0,1307;-0,1662;
1,776636;0,5756;0,6499;0,4974;-0,4747;-0,1115;0,5347;-0,1772;0,1307;-0,1662;
1,796668;0,5756;0,6499;0,4974;-0,4344;0,2494;0,2773;-0,1772;0,1307;-0,1662;
1,812026;0,5756;0,6499;0,4974;-0,4344;0,2494;0,2773;-0,1552;-0,0061;-0,1246;
1,816406;0,5756;0,6499;0,4974;-0,9499;0,4143;-0,0513;-0,1552;-0,0061;-0,1246;
1,831559;0,5179;0,6743;0,5170;-0,9499;0,4143;-0,0513;-0,1552;-0,0061;-0,1246;
1,840314;0,5179;0,6743;0,5170;-1,0369;0,2910;0,1810;-0,1552;-0,0061;-0,1246;
1,857940;0,5179;0,6743;0,5170;-0,6532;0,2686;0,6509;-0,1552;-0,0061;-0,1246;
1,876648;0,5179;0,6743;0,5170;-0,2833;0,1638;0,5602;-0,1552;-0,0061;-0,1246;
1,880646;0,5179;0,6743;0,5170;-0,2833;0,1638;0,5602;-0,2199;0,1503;-0,1833;
1,896697;0,6039;0,6049;0,5873;-0,2833;0,1638;0,5602;-0,2199;0,1503;-0,1833;
1,898812;0,6039;0,6049;0,5873;0,1277;0,0047;0,8039;-0,2199;0,1503;-0,1833;
1,916546;0,6039;0,6049;0,5873;0,1598;-0,3561;1,0740;-0,2199;0,1503;-0,1833;
1,937993;0,6039;0,6049;0,5873;0,0081;-0,7736;1,5721;-0,2199;0,1503;-0,1833;
1,943628;0,6039;0,6049;0,5873;0,0081;-0,7736;1,5721;0,1222;0,1881;-0,1564;
1,956610;0,6039;0,6049;0,5873;-0,2528;-0,7749;0,7279;0,1222;0,1881;-0,1564;
1,961416;0,5287;0,5863;0,4544;-0,2528;-0,7749;0,7279;0,1222;0,1881;-0,1564;
1,976879;0,5287;0,5863;0,4544;-0,3635;-0,5952;-0,2581;0,1222;0,1881;-0,1564;
1,996772;0,5287;0,5863;0,4544;-0,7319;-0,4336;-0,4025;0,1222;0,1881;-0,1564;
2,006879;0,5287;0,5863;0,4544;-0,7319;-0,4336;-0,4025;0,0770;0,1686;-0,1246;
2,016520;0,5287;0,5863;0,4544;-0,6789;-0,2898;-0,2050;0,0770;0,1686;-0,1246;
2,026661;0,5003;0,6372;0,4798;-0,6789;-0,2898;-0,2050;0,0770;0,1686;-0,1246;
2,037366;0,5003;0,6372;0,4798;-0,4656;-0,1310;0,0590;0,0770;0,1686;-0,1246;
2,056646;0,5003;0,6372;0,4798;-0,6534;-0,1427;-0,4423;0,0770;0,1686;-0,1246;
2,071731;0,5003;0,6372;0,4798;-0,6534;-0,1427;-0,4423;0,0024;0,1588;-0,0696;
2,076510;0,5003;0,6372;0,4798;-0,2622;0,0565;-0,6193;0,0024;0,1588;-0,0696;
2,091647;0,5863;0,6762;0,4769;-0,2622;0,0565;-0,6193;0,0024;0,1588;-0,0696;
2,096709;0,5863;0,6762;0,4769;0,1893;0,1527;-0,2634;0,0024;0,1588;-0,0696;
2,119478;0,5863;0,6762;0,4769;0,3081;0,1373;-0,2353;0,0024;0,1588;-0,0696;
2,136394;0,5863;0,6762;0,4769;0,6838;0,2703;-0,4292;0,0024;0,1588;-0,0696;
2,141452;0,5863;0,6762;0,4769;0,6838;0,2703;-0,4292;-0,2224;0,4203;-0,2480;
2,156300;0,5570;0,6880;0,5121;0,6838;0,2703;-0,4292;-0,2224;0,4203;-0,2480;
2,158445;0,5570;0,6880;0,5121;0,8185;0,4923;-0,2929;-0,2224;0,4203;-0,2480;
2,176405;0,5570;0,6880;0,5121;0,1685;0,2196;0,1154;-0,2224;0,4203;-0,2480;
2,196212;0,5570;0,6880;0,5121;-0,0870;0,1528;0,6548;-0,2224;0,4203;-0,2480;
2,201197;0,5570;0,6880;0,5121;-0,0870;0,1528;0,6548;-0,0391;0,1649;-0,0721;
2,216415;0,5570;0,6880;0,5121;0,0799;0,4255;0,6655;-0,0391;0,1649;-0,0721;
2,221005;0,5170;0,7016;0,5639;0,0799;0,4255;0,6655;-0,0391;0,1649;-0,0721;
2,236231;0,5170;0,7016;0,5639;-0,0404;0,4294;0,4788;-0,0391;0,1649;-0,0721;
2,256265;0,5170;0,7016;0,5639;0,2315;0,3957;0,4867;-0,0391;0,1649;-0,0721;
2,267477;0,5170;0,7016;0,5639;0,2315;0,3957;0,4867;0,0745;0,0208;-0,0342;
2,276462;0,5170;0,7016;0,5639;0,4261;0,3107;0,4155;0,0745;0,0208;-0,0342;
2,286364;0,5502;0,6684;0,5678;0,4261;0,3107;0,4155;0,0745;0,0208;-0,0342;
2,296791;0,5502;0,6684;0,5678;0,3722;0,0745;0,4928;0,0745;0,0208;-0,0342;
2,317539;0,5502;0,6684;0,5678;0,2017;-0,0074;0,3806;0,0745;0,0208;-0,0342;
2,335238;0,5502;0,6684;0,5678;0,2017;-0,0074;0,3806;0,1515;-0,0024;-0,0037;
2,338975;0,5502;0,6684;0,5678;-0,0425;-0,1276;0,1995;0,1515;-0,0024;-0,0037;
2,352854;0,5130;0,6459;0,4945;-0,0425;-0,1276;0,1995;0,1515;-0,0024;-0,0037;
2,356562;0,5130;0,6459;0,4945;-0,1364;-0,2030;-0,1755;0,1515;-0,0024;-0,0037;
2,376684;0,5130;0,6459;0,4945;-0,0225;-0,2837;-0,1953;0,1515;-0,0024;-0,0037;
2,398394;0,5130;0,6459;0,4945;0,3059;-0,3068;-0,1885;0,1515;-0,0024;-0,0037;
2,400850;0,5130;0,6459;0,4945;0,3059;-0,3068;-0,1885;0,0281;0,1173;-0,0733;
2,416144;0,5130;0,6323;0,4896;0,3059;-0,3068;-0,1885;0,0281;0,1173;-0,0733;
2,417953;0,5130;0,6323;0,4896;0,3758;-0,2349;-0,2890;0,0281;0,1173;-0,0733;
2,436490;0,5130;0,6323;0,4896;-0,0851;-0,3740;-0,2278;0,0281;0,1173;-0,0733;
2,456427;0,5130;0,6323;0,4896;-0,1694;-0,3615;-0,1934;0,0281;0,1173;-0,0733;
2,461216;0,5130;0,6323;0,4896;-0,1694;-0,3615;-0,1934;0,0000;-0,0367;-0,0367;
2,476247;0,5130;0,6323;0,4896;-0,0765;-0,1843;-0,2252;0,0000;-0,0367;-0,0367;
2,481385;0,5345;0,6704;0,5150;-0,0765;-0,1843;-0,2252;0,0000;-0,0367;-0,0367;
2,497471;0,5345;0,6704;0,5150;0,0800;-0,0717;-0,0612;0,0000;-0,0367;-0,0367;
2,516427;0,5345;0,6704;0,5150;0,0324;-0,0337;0,2297;0,0000;-0,0367;-0,0367;
2,526859;0,5345;0,6704;0,5150;0,0324;-0,0337;0,2297;-0,0024;-0,0562;-0,0086;
2,536591;0,5345;0,6704;0,5150;-0,1525;-0,1471;0,2062;-0,0024;-0,0562;-0,0086;
2,548730;0,5365;0,6772;0,5600;-0,1525;-0,1471;0,2062;-0,0024;-0,0562;-0,0086;
2,556561;0,5365;0,6772;0,5600;0,0951;-0,0264;0,3438;-0,0024;-0,0562;-0,0086;
2,576649;0,5365;0,6772;0,5600;0,0993;0,0896;0,3123;-0,0024;-0,0562;-0,0086;
2,591824;0,5365;0,6772;0,5600;0,0993;0,0896;0,3123;-0,0061;0,0147;0,0159;
2,599396;0,5365;0,6772;0,5600;-0,0302;0,0662;0,1035;-0,0061;0,0147;0,0159;
2,615083;0,5257;0,6782;0,5306;-0,0302;0,0662;0,1035;-0,0061;0,0147;0,0159;
2,619039;0,5257;0,6782;0,5306;0,0386;0,1081;0,1194;-0,0061;0,0147;0,0159;
2,636690;0,5257;0,6782;0,5306;0,0663;0,0735;0,1346;-0,0061;0,0147;0,0159;
2,656766;0,5257;0,6782;0,5306;0,1834;0,0518;0,0497;-0,0061;0,0147;0,0159;
2,660958;0,5257;0,6782;0,5306;0,1834;0,0518;0,0497;0,0501;-0,0501;-0,0305;
2,679924;0,5639;0,6929;0,5033;0,1834;0,0518;0,0497;0,0501;-0,0501;-0,0305;
2,684026;0,5639;0,6929;0,5033;0,4500;0,1682;-0,0186;0,0501;-0,0501;-0,0305;
2,697047;0,5639;0,6929;0,5033;0,4093;0,2091;-0,0749;0,0501;-0,0501;-0,0305;
2,716947;0,5639;0,6929;0,5033;-0,0940;0,1427;-0,1834;0,0501;-0,0501;-0,0305;
2,721743;0,5639;0,6929;0,5033;-0,0940;0,1427;-0,1834;0,0440;0,0049;-0,0586;
2,736501;0,5639;0,6929;0,5033;-0,3142;0,0820;-0,3308;0,0440;0,0049;-0,0586;
2,741463;0,5209;0,6880;0,4730;-0,3142;0,0820;-0,3308;0,0440;0,0049;-0,0586;
2,756441;0,5209;0,6880;0,4730;-0,0620;0,0724;-0,4461;0,0440;0,0049;-0,0586;
2,777357;0,5209;0,6880;0,4730;0,0537;0,0524;-0,0091;0,0440;0,0049;-0,0586;
2,786393;0,5209;0,6880;0,4730;0,0537;0,0524;-0,0091;-0,0562;0,1319;-0,0464;
2,796413;0,5209;0,6880;0,4730;-0,2966;-0,1661;-0,1030;-0,0562;0,1319;-0,0464;
2,806121;0,4808;0,6606;0,4740;-0,2966;-0,1661;-0,1030;-0,0562;0,1319;-0,0464;
2,816279;0,4808;0,6606;0,4740;-0,4640;-0,2199;-0,3117;-0,0562;0,1319;-0,0464;
2,836237;0,4808;0,6606;0,4740;-0,0486;-0,1368;-0,1939;-0,0562;0,1319;-0,0464;
2,851399;0,4808;0,6606;0,4740;-0,0486;-0,1368;-0,1939;-0,0024;-0,0599;0,0086;
2,856188;0,4808;0,6606;0,4740;0,1370;-0,2610;0,4071;-0,0024;-0,0599;0,0086;
2,871385;0,5326;0,6596;0,5541;0,1370;-0,2610;0,4071;-0,0024;-0,0599;0,0086;
2,876611;0,5326;0,6596;0,5541;0,1507;-0,1993;0,5176;-0,0024;-0,0599;0,0086;
2,896457;0,5326;0,6596;0,5541;0,2306;-0,0933;0,2635;-0,0024;-0,0599;0,0086;
2,916293;0,5326;0,6596;0,5541;-0,0299;-0,1202;0,0304;-0,0024;-0,0599;0,0086;
2,918877;0,5326;0,6596;0,5541;-0,0299;-0,1202;0,0304;0,0635;-0,1515;0,0648;
2,936389;0,5257;0,6645;0,5277;-0,0299;-0,1202;0,0304;0,0635;-0,1515;0,0648;
2,937893;0,5257;0,6645;0,5277;-0,0029;-0,1985;0,1012;0,0635;-0,1515;0,0648;
2,958514;0,5257;0,6645;0,5277;0,1044;-0,0985;0,1450;0,0635;-0,1515;0,0648;
2,976233;0,5257;0,6645;0,5277;-0,2179;0,0754;-0,2841;0,0635;-0,1515;0,0648;
2,981439;0,5257;0,6645;0,5277;-0,2179;0,0754;-0,2841;-0,0391;-0,0183;0,0794;
2,996422;0,5257;0,6645;0,5277;-0,4342;0,0933;-0,3339;-0,0391;-0,0183;0,0794;
3,001118;0,5130;0,6968;0,4974;-0,4342;0,0933;-0,3339;-0,0391;-0,0183;0,0794;
3,016319;0,5130;0,6968;0,4974;-0,1420;0,2336;-0,1820;-0,0391;-0,0183;0,0794;
3,036451;0,5130;0,6968;0,4974;0,2256;0,1487;0,1589;-0,0391;-0,0183;0,0794;
3,046633;0,5130;0,6968;0,4974;0,2256;0,1487;0,1589;-0,0513;0,0073;-0,0660;
3,058568;0,5130;0,6968;0,4974;0,3450;0,0155;0,4170;-0,0513;0,0073;-0,0660;
3,066564;0,4925;0,6430;0,5883;0,3450;0,0155;0,4170;-0,0513;0,0073;-0,0660;
3,076541;0,4925;0,6430;0,5883;0,0230;-0,1677;0,7253;-0,0513;0,0073;-0,0660;
3,097002;0,4925;0,6430;0,5883;-0,3998;-0,3014;0,5678;-0,0513;0,0073;-0,0660;
3,112326;0,4925;0,6430;0,5883;-0,3998;-0,3014;0,5678;0,0843;0,0232;-0,0440;
3,116521;0,4925;0,6430;0,5883;-0,1305;0,0116;0,1161;0,0843;0,0232;-0,0440;
3,131588;0,4554;0,6811;0,4867;-0,1305;0,0116;0,1161;0,0843;0,0232;-0,0440;
3,136514;0,4554;0,6811;0,4867;-0,3268;0,0768;-0,1309;0,0843;0,0232;-0,0440;
3,157796;0,4554;0,6811;0,4867;-0,6417;0,0322;-0,2314;0,0843;0,0232;-0,0440;
3,176684;0,4554;0,6811;0,4867;-0,4453;0,1090;-0,1314;0,0843;0,0232;-0,0440;
3,179677;0,4554;0,6811;0,4867;-0,4453;0,1090;-0,1314;-0,0403;0,1332;0,0000;
3,196641;0,4593;0,6792;0,4671;-0,4453;0,1090;-0,1314;-0,0403;0,1332;0,0000;
3,200230;0,4593;0,6792;0,4671;-0,3335;0,1052;-0,1663;-0,0403;0,1332;0,0000;
3,216644;0,4593;0,6792;0,4671;-0,5065;0,0012;-0,4496;-0,0403;0,1332;0,0000;
3,236545;0,4593;0,6792;0,4671;-0,2158;-0,1098;-0,1018;-0,0403;0,1332;0,0000;
3,244938;0,4593;0,6792;0,4671;-0,2158;-0,1098;-0,1018;-0,0293;-0,0232;0,0538;
3,257266;0,4593;0,6792;0,4671;0,2578;0,0099;0,0951;-0,0293;-0,0232;0,0538;
3,261927;0,5355;0,6684;0,5336;0,2578;0,0099;0,0951;-0,0293;-0,0232;0,0538;
3,276688;0,5355;0,6684;0,5336;0,2924;-0,0186;0,1513;-0,0293;-0,0232;0,0538;
3,296645;0,5355;0,6684;0,5336;0,0786;-0,0309;0,2475;-0,0293;-0,0232;0,0538;
3,307709;0,5355;0,6684;0,5336;0,0786;-0,0309;0,2475;0,0733;-0,1491;0,1100;
3,316472;0,5355;0,6684;0,5336;0,2159;0,0687;0,0462;0,0733;-0,1491;0,1100;
3,326698;0,5981;0,6870;0,5003;0,2159;0,0687;0,0462;0,0733;-0,1491;0,1100;
3,340355;0,5981;0,6870;0,5003;0,6591;0,1595;-0,1940;0,0733;-0,1491;0,1100;
3,356570;0,5981;0,6870;0,5003;0,7068;0,1150;0,2373;0,0733;-0,1491;0,1100;
3,372814;0,5981;0,6870;0,5003;0,7068;0,1150;0,2373;0,0354;0,0147;0,0880;
3,376552;0,5981;0,6870;0,5003;0,4330;-0,0941;0,3459;0,0354;0,0147;0,0880;
3,391284;0,5248;0,6645;0,4827;0,4330;-0,0941;0,3459;0,0354;0,0147;0,0880;
3,396317;0,5248;0,6645;0,4827;0,0589;-0,0623;-0,1555;0,0354;0,0147;0,0880;
3,416175;0,5248;0,6645;0,4827;-0,0146;-0,0044;-0,2598;0,0354;0,0147;0,0880;
3,436361;0,5248;0,6645;0,4827;-0,0013;-0,1163;0,0702;0,0354;0,0147;0,0880;
3,438824;0,5248;0,6645;0,4827;-0,0013;-0,1163;0,0702;0,0049;-0,0208;0,1075;
3,456342;0,5101;0,6508;0,4759;-0,0013;-0,1163;0,0702;0,0049;-0,0208;0,1075;
3,458424;0,5101;0,6508;0,4759;0,0082;0,0090;-0,1931;0,0049;-0,0208;0,1075;
3,476224;0,5101;0,6508;0,4759;-0,2421;-0,1450;-0,2889;0,0049;-0,0208;0,1075;
3,496487;0,5101;0,6508;0,4759;-0,3878;-0,3103;-0,0820;0,0049;-0,0208;0,1075;
3,501728;0,5101;0,6508;0,4759;-0,3878;-0,3103;-0,0820;0,0733;-0,2101;0,1820;
3,516171;0,5101;0,6508;0,4759;-0,5483;-0,3992;-0,1319;0,0733;-0,2101;0,1820;
3,521398;0,4310;0,6264;0,4427;-0,5483;-0,3992;-0,1319;0,0733;-0,2101;0,1820;
3,537339;0,4310;0,6264;0,4427;-0,9521;-0,3360;-0,5188;0,0733;-0,2101;0,1820;
3,556804;0,4310;0,6264;0,4427;-1,4647;-0,4008;-0,7380;0,0733;-0,2101;0,1820;
3,569005;0,4310;0,6264;0,4427;-1,4647;-0,4008;-0,7380;-0,2688;0,1087;0,4178;
3,576741;0,4310;0,6264;0,4427;-2,0608;-0,4645;-0,0529;-0,2688;0,1087;0,4178;
3,586774;0,2169;0,6674;0,6235;-2,0608;-0,4645;-0,0529;-0,2688;0,1087;0,4178;
3,596395;0,2169;0,6674;0,6235;-2,7764;0,0365;0,6701;-0,2688;0,1087;0,4178;
3,616238;0,2169;0,6674;0,6235;-2,9842;0,2237;1,4177;-0,2688;0,1087;0,4178;
3,631690;0,2169;0,6674;0,6235;-2,9842;0,2237;1,4177;0,1600;-0,0599;0,7306;
3,636373;0,2169;0,6674;0,6235;-1,6730;0,6718;1,8197;0,1600;-0,0599;0,7306;
3,651357;0,5033;0,7632;0,7359;-1,6730;0,6718;1,8197;0,1600;-0,0599;0,7306;
3,656617;0,5033;0,7632;0,7359;-0,7243;1,0278;1,9225;0,1600;-0,0599;0,7306;
3,676725;0,5033;0,7632;0,7359;-0,4577;1,5423;1,9384;0,1600;-0,0599;0,7306;
3,696861;0,5033;0,7632;0,7359;-0,7068;2,4632;2,0036;0,1600;-0,0599;0,7306;
3,703846;0,5033;0,7632;0,7359;-0,7068;2,4632;2,0036;0,5522;0,2578;0,8210;
3,721224;0,5805;1,1072;0,8727;-0,7068;2,4632;2,0036;0,5522;0,2578;0,8210;
3,731870;0,5805;1,1072;0,8727;-0,5268;3,4992;2,9740;0,5522;0,2578;0,8210;
3,738955;0,5805;1,1072;0,8727;0,3057;4,8093;3,1702;0,5522;0,2578;0,8210;
3,757764;0,5805;1,1072;0,8727;2,1436;5,2159;3,6110;0,5522;0,2578;0,8210;
3,762369;0,5805;1,1072;0,8727;2,1436;5,2159;3,6110;1,3977;0,2175;0,6158;
3,776466;0,5805;1,1072;0,8727;3,4187;4,9996;5,4366;1,3977;0,2175;0,6158;
3,782775;0,9557;1,0662;1,0622;3,4187;4,9996;5,4366;1,3977;0,2175;0,6158;
3,796459;0,9557;1,0662;1,0622;3,5907;4,2822;5,6855;1,3977;0,2175;0,6158;
3,816275;0,9557;1,0662;1,0622;5,0721;4,4901;3,8128;1,3977;0,2175;0,6158;
3,826485;0,9557;1,0662;1,0622;5,0721;4,4901;3,8128;2,4312;-0,6597;-0,0110;
3,836533;0,9557;1,0662;1,0622;6,1097;4,7375;2,4813;2,4312;-0,6597;-0,0110;
3,846360;1,4004;1,0105;0,4798;6,1097;4,7375;2,4813;2,4312;-0,6597;-0,0110;
3,857382;1,4004;1,0105;0,4798;7,0176;3,6585;1,6497;2,4312;-0,6597;-0,0110;
3,876748;1,4004;1,0105;0,4798;8,0699;2,8693;0,3777;2,4312;-0,6597;-0,0110;
3,892836;1,4004;1,0105;0,4798;8,0699;2,8693;0,3777;1,7080;-0,1967;-1,1741;
3,902758;1,4004;1,0105;0,4798;7,5462;2,1181;0,5021;1,7080;-0,1967;-1,1741;
3,911906;1,2596;0,6577;0,3264;7,5462;2,1181;0,5021;1,7080;-0,1967;-1,1741;
3,920748;1,2596;0,6577;0,3264;6,5060;0,4434;0,7973;1,7080;-0,1967;-1,1741;
3,940257;1,2596;0,6577;0,3264;6,6900;-1,0994;0,0868;1,7080;-0,1967;-1,1741;
3,957651;1,2596;0,6577;0,3264;6,2767;-2,1520;-0,9412;1,7080;-0,1967;-1,1741;
3,964098;1,2596;0,6577;0,3264;6,2767;-2,1520;-0,9412;1,5211;-0,9529;-1,6151;
3,976227;1,0026;0,3430;-0,1837;6,2767;-2,1520;-0,9412;1,5211;-0,9529;-1,6151;
3,980635;1,0026;0,3430;-0,1837;4,4989;-3,1913;-1,5341;1,5211;-0,9529;-1,6151;
3,996350;1,0026;0,3430;-0,1837;3,9068;-4,2448;-3,0995;1,5211;-0,9529;-1,6151;
4,016252;1,0026;0,3430;-0,1837;3,6081;-4,7857;-2,6623;1,5211;-0,9529;-1,6151;
4,021553;1,0026;0,3430;-0,1837;3,6081;-4,7857;-2,6623;0,8503;-1,7593;-1,9145;
4,036257;1,0026;0,3430;-0,1837;2,7558;-5,4566;-0,9169;0,8503;-1,7593;-1,9145;
4,041204;0,6821;0,1632;-0,0733;2,7558;-5,4566;-0,9169;0,8503;-1,7593;-1,9145;
4,056602;0,6821;0,1632;-0,0733;1,4483;-6,4718;-0,7924;0,8503;-1,7593;-1,9145;
4,076441;0,6821;0,1632;-0,0733;0,3765;-5,9475;-1,1455;0,8503;-1,7593;-1,9145;
4,087059;0,6821;0,1632;-0,0733;0,3765;-5,9475;-1,1455;0,4753;-2,0415;-1,1741;
4,096967;0,6821;0,1632;-0,0733;-0,0164;-6,2000;-2,3342;0,4753;-2,0415;-1,1741;
4,106542;0,5463;0,2717;-0,4007;-0,0164;-6,2000;-2,3342;0,4753;-2,0415;-1,1741;
4,116674;0,5463;0,2717;-0,4007;0,0759;-5,6151;-2,5183;0,4753;-2,0415;-1,1741;
4,137886;0,5463;0,2717;-0,4007;-0,2117;-5,5597;-2,1814;0,4753;-2,0415;-1,1741;
4,153183;0,5463;0,2717;-0,4007;-0,2117;-5,5597;-2,1814;-0,0672;-2,2529;-1,0678;
4,157617;0,5463;0,2717;-0,4007;-0,9668;-5,3483;-0,0550;-0,0672;-2,2529;-1,0678;
4,172492;0,3117;0,3108;-0,1632;-0,9668;-5,3483;-0,0550;-0,0672;-2,2529;-1,0678;
4,178966;0,3117;0,3108;-0,1632;-1,2764;-5,2086;0,9126;-0,0672;-2,2529;-1,0678;
4,196443;0,3117;0,3108;-0,1632;-1,7923;-5,0280;0,3575;-0,0672;-2,2529;-1,0678;
4,216241;0,3117;0,3108;-0,1632;-1,8816;-4,8371;-0,1107;-0,0672;-2,2529;-1,0678;
4,219411;0,3117;0,3108;-0,1632;-1,8816;-4,8371;-0,1107;-0,7049;-1,8790;-0,5363;
4,236331;0,0665;0,3938;-0,0430;-1,8816;-4,8371;-0,1107;-0,7049;-1,8790;-0,5363;
4,238290;0,0665;0,3938;-0,0430;-3,0396;-5,2601;0,9362;-0,7049;-1,8790;-0,5363;
4,256581;0,0665;0,3938;-0,0430;-3,2097;-4,5352;2,6067;-0,7049;-1,8790;-0,5363;
4,277790;0,0665;0,3938;-0,0430;-2,2682;-4,8166;3,1128;-0,7049;-1,8790;-0,5363;
4,285019;0,0665;0,3938;-0,0430;-2,2682;-4,8166;3,1128;-0,9334;-1,0372;-0,4753;
4,297122;0,0665;0,3938;-0,0430;-2,8703;-4,4814;3,6792;-0,9334;-1,0372;-0,4753;
4,305460;-0,0880;0,4827;0,1720;-2,8703;-4,4814;3,6792;-0,9334;-1,0372;-0,4753;
4,317398;-0,0880;0,4827;0,1720;-3,7133;-4,1763;3,6887;-0,9334;-1,0372;-0,4753;
4,337415;-0,0880;0,4827;0,1720;-4,2724;-4,3776;3,4541;-0,9334;-1,0372;-0,4753;
4,348570;-0,0880;0,4827;0,1720;-4,2724;-4,3776;3,4541;-0,8931;-0,6304;-0,2431;
4,358953;-0,0880;0,4827;0,1720;-4,3606;-4,7917;2,7520;-0,8931;-0,6304;-0,2431;
4,370754;-0,2199;0,5414;0,1730;-4,3606;-4,7917;2,7520;-0,8931;-0,6304;-0,2431;
4,379345;-0,2199;0,5414;0,1730;-4,5311;-3,9452;2,7092;-0,8931;-0,6304;-0,2431;
4,396283;-0,2199;0,5414;0,1730;-4,3333;-4,2648;3,1312;-0,8931;-0,6304;-0,2431;
4,411710;-0,2199;0,5414;0,1730;-4,3333;-4,2648;3,1312;-1,2437;-0,2859;0,1136;
4,416167;-0,2199;0,5414;0,1730;-4,7425;-5,2119;3,4435;-1,2437;-0,2859;0,1136;
4,431193;-0,2678;0,6391;0,3958;-4,7425;-5,2119;3,4435;-1,2437;-0,2859;0,1136;
4,436404;-0,2678;0,6391;0,3958;-4,4084;-4,2615;3,4498;-1,2437;-0,2859;0,1136;
4,456413;-0,2678;0,6391;0,3958;-3,8188;-3,2531;3,5623;-1,2437;-0,2859;0,1136;
4,476252;-0,2678;0,6391;0,3958;-3,4706;-3,4143;2,7643;-1,2437;-0,2859;0,1136;
4,480331;-0,2678;0,6391;0,3958;-3,4706;-3,4143;2,7643;-1,1997;-0,3091;0,1515;
4,496383;-0,1798;0,6929;0,6332;-3,4706;-3,4143;2,7643;-1,1997;-0,3091;0,1515;
4,498914;-0,1798;0,6929;0,6332;-3,5197;-3,6124;3,7460;-1,1997;-0,3091;0,1515;
4,516322;-0,1798;0,6929;0,6332;-2,6361;-2,7073;4,3367;-1,1997;-0,3091;0,1515;
4,536448;-0,1798;0,6929;0,6332;-3,3496;-0,6957;2,8147;-1,1997;-0,3091;0,1515;
4,542455;-0,1798;0,6929;0,6332;-3,3496;-0,6957;2,8147;-1,6298;1,0299;0,4019;
4,556676;-0,1798;0,6929;0,6332;-3,8032;-0,3242;1,0073;-1,6298;1,0299;0,4019;
4,561268;-0,1046;0,8629;0,6225;-3,8032;-0,3242;1,0073;-1,6298;1,0299;0,4019;
4,576199;-0,1046;0,8629;0,6225;-1,8840;-1,0233;2,6055;-1,6298;1,0299;0,4019;
4,596440;-0,1046;0,8629;0,6225;-1,9089;0,4232;4,2733;-1,6298;1,0299;0,4019;
4,606594;-0,1046;0,8629;0,6225;-1,9089;0,4232;4,2733;-1,5492;1,9413;0,8161;
4,616503;-0,1046;0,8629;0,6225;-3,5340;2,0544;4,5517;-1,5492;1,9413;0,8161;
4,626794;-0,2296;1,0681;0,7290;-3,5340;2,0544;4,5517;-1,5492;1,9413;0,8161;
4,636573;-0,2296;1,0681;0,7290;-2,9474;1,5277;3,2631;-1,5492;1,9413;0,8161;
4,656864;-0,2296;1,0681;0,7290;-1,7678;2,3168;3,4478;-1,5492;1,9413;0,8161;
4,676106;-0,2296;1,0681;0,7290;-1,7678;2,3168;3,4478;-1,0116;1,5296;1,0886;
4,685504;-0,2296;1,0681;0,7290;0,0584;3,3100;6,0128;-1,0116;1,5296;1,0886;
4,696529;0,1163;1,1394;1,0652;0,0584;3,3100;6,0128;-1,0116;1,5296;1,0886;
4,706461;0,1163;1,1394;1,0652;1,1827;3,4352;7,1348;-1,0116;1,5296;1,0886;
4,717371;0,1163;1,1394;1,0652;0,8905;3,1978;4,5445;-1,0116;1,5296;1,0886;
4,737078;0,1163;1,1394;1,0652;2,0788;4,2745;5,2350;-1,0116;1,5296;1,0886;
4,743598;0,1163;1,1394;1,0652;2,0788;4,2745;5,2350;-0,2798;2,4154;1,1961;
4,756379;0,2814;1,1639;0,7759;2,0788;4,2745;5,2350;-0,2798;2,4154;1,1961;
4,759278;0,2814;1,1639;0,7759;3,2936;4,0751;4,9666;-0,2798;2,4154;1,1961;
4,776315;0,2814;1,1639;0,7759;2,6222;3,6309;1,7767;-0,2798;2,4154;1,1961;
4,796512;0,2814;1,1639;0,7759;5,2675;4,8214;2,0990;-0,2798;2,4154;1,1961;
4,801435;0,2814;1,1639;0,7759;5,2675;4,8214;2,0990;0,7905;1,9560;1,2718;
4,816504;0,2814;1,1639;0,7759;7,2349;4,1567;2,0253;0,7905;1,9560;1,2718;
4,821213;0,9811;1,2264;0,3928;7,2349;4,1567;2,0253;0,7905;1,9560;1,2718;
4,836209;0,9811;1,2264;0,3928;8,3488;4,1009;-0,6559;0,7905;1,9560;1,2718;
4,856208;0,9811;1,2264;0,3928;9,1768;3,7926;-3,0729;0,7905;1,9560;1,2718;
4,866233;0,9811;1,2264;0,3928;9,1768;3,7926;-3,0729;0,6744;0,6793;0,0672;
4,876031;0,9811;1,2264;0,3928;7,5502;2,7719;-2,1866;0,6744;0,6793;0,0672;
4,886241;0,7085;0,9762;0,2306;7,5502;2,7719;-2,1866;0,6744;0,6793;0,0672;
4,896019;0,7085;0,9762;0,2306;6,5520;1,9657;-2,4141;0,6744;0,6793;0,0672;
4,916234;0,7085;0,9762;0,2306;4,6708;0,6272;-2,5111;0,6744;0,6793;0,0672;
4,931644;0,7085;0,9762;0,2306;4,6708;0,6272;-2,5111;-0,2382;0,6781;-0,0513;
4,936245;0,7085;0,9762;0,2306;3,3799;0,3185;-0,9221;-0,2382;0,6781;-0,0513;
4,952292;0,3694;0,8346;0,5453;3,3799;0,3185;-0,9221;-0,2382;0,6781;-0,0513;
4,956649;0,3694;0,8346;0,5453;3,0673;0,2593;0,3141;-0,2382;0,6781;-0,0513;
4,976488;0,3694;0,8346;0,5453;2,0029;-0,2516;0,2634;-0,2382;0,6781;-0,0513;
4,996759;0,3694;0,8346;0,5453;0,7409;-0,8067;0,4705;-0,2382;0,6781;-0,0513;
5,003162;0,3694;0,8346;0,5453;0,7409;-0,8067;0,4705;0,1014;-0,2749;0,1246;
5,016786;0,2668;0,7495;0,5639;0,7409;-0,8067;0,4705;0,1014;-0,2749;0,1246;
5,021294;0,2668;0,7495;0,5639;0,7240;-1,0127;0,8772;0,1014;-0,2749;0,1246;
5,038284;0,2668;0,7495;0,5639;1,1130;-0,8008;0,4444;0,1014;-0,2749;0,1246;
5,060959;0,2668;0,7495;0,5639;0,8454;-0,7153;0,0572;0,1014;-0,2749;0,1246;
5,071828;0,2668;0,7495;0,5639;0,8454;-0,7153;0,0572;-0,0953;-0,1026;0,0538;
5,079517;0,2668;0,7495;0,5639;0,1917;-0,9313;0,7279;-0,0953;-0,1026;0,0538;
5,088768;0,1769;0,7310;0,6665;0,1917;-0,9313;0,7279;-0,0953;-0,1026;0,0538;
5,097312;0,1769;0,7310;0,6665;0,2081;-0,8733;1,4579;-0,0953;-0,1026;0,0538;
5,116463;0,1769;0,7310;0,6665;0,0188;-0,8020;0,3804;-0,0953;-0,1026;0,0538;
5,126494;0,1769;0,7310;0,6665;0,0188;-0,8020;0,3804;0,3580;-0,3482;0,1148;
5,136318;0,1769;0,7310;0,6665;-0,1905;-0,6915;-0,5343;0,3580;-0,3482;0,1148;
5,146329;0,1622;0,7632;0,3870;-0,1905;-0,6915;-0,5343;0,3580;-0,3482;0,1148;
5,156466;0,1622;0,7632;0,3870;-0,2240;-0,5804;-1,0412;0,3580;-0,3482;0,1148;
5,176300;0,1622;0,7632;0,3870;-0,3394;-0,6712;-1,4834;0,3580;-0,3482;0,1148;
5,191491;0,1622;0,7632;0,3870;-0,3394;-0,6712;-1,4834;0,3641;-0,3335;0,1857;
5,196140;0,1622;0,7632;0,3870;-1,0266;-0,9201;-1,9220;0,3641;-0,3335;0,1857;
5,211500;0,1055;0,7437;0,3498;-1,0266;-0,9201;-1,9220;0,3641;-0,3335;0,1857;
5,216535;0,1055;0,7437;0,3498;-1,3348;-1,1484;-2,0272;0,3641;-0,3335;0,1857;
5,236696;0,1055;0,7437;0,3498;-0,4725;-0,9923;-1,1574;0,3641;-0,3335;0,1857;
5,256830;0,1055;0,7437;0,3498;0,2959;-0,2986;-1,9348;0,3641;-0,3335;0,1857;
5,263472;0,1055;0,7437;0,3498;0,2959;-0,2986;-1,9348;-0,8112;0,5143;0,0086;
5,277605;0,1163;0,8981;0,7378;0,2959;-0,2986;-1,9348;-0,8112;0,5143;0,0086;
5,285425;0,1163;0,8981;0,7378;-0,2118;0,3611;-0,8634;-0,8112;0,5143;0,0086;
5,297262;0,1163;0,8981;0,7378;-0,6061;0,5067;2,4729;-0,8112;0,5143;0,0086;
5,317749;0,1163;0,8981;0,7378;-0,2290;0,8406;3,0683;-0,8112;0,5143;0,0086;
5,325915;0,1163;0,8981;0,7378;-0,2290;0,8406;3,0683;-0,0415;0,0183;0,0330;
5,337502;0,1163;0,8981;0,7378;0,2480;1,1904;2,5855;-0,0415;0,0183;0,0330;
5,348353;0,1818;0,9567;0,6997;0,2480;1,1904;2,5855;-0,0415;0,0183;0,0330;
5,360330;0,1818;0,9567;0,6997;0,3050;1,3355;2,0304;-0,0415;0,0183;0,0330;
5,376437;0,1818;0,9567;0,6997;-0,4008;1,0521;1,1888;-0,0415;0,0183;0,0330;
5,386599;0,1818;0,9567;0,6997;-0,4008;1,0521;1,1888;0,0953;0,2004;0,0757;
5,396630;0,1818;0,9567;0,6997;-0,2141;0,7967;1,6139;0,0953;0,2004;0,0757;
5,406195;0,1505;0,8815;0,5912;-0,2141;0,7967;1,6139;0,0953;0,2004;0,0757;
5,416482;0,1505;0,8815;0,5912;-0,1082;0,5947;1,0728;0,0953;0,2004;0,0757;
5,436248;0,1505;0,8815;0,5912;-0,0096;0,5173;0,0084;0,0953;0,2004;0,0757;
5,451658;0,1505;0,8815;0,5912;-0,0096;0,5173;0,0084;-0,0195;0,2077;0,0086;
5,456386;0,1505;0,8815;0,5912;0,3312;0,4038;-0,4117;-0,0195;0,2077;0,0086;
5,471671;0,1632;0,8179;0,5345;0,3312;0,4038;-0,4117;-0,0195;0,2077;0,0086;
5,476397;0,1632;0,8179;0,5345;0,3869;0,1453;-0,0330;-0,0195;0,2077;0,0086;
5,496745;0,1632;0,8179;0,5345;-0,1119;-0,1335;0,0792;-0,0195;0,2077;0,0086;
5,516913;0,1632;0,8179;0,5345;-0,2323;-0,2790;-0,0756;-0,0195;0,2077;0,0086;
5,523791;0,1632;0,8179;0,5345;-0,2323;-0,2790;-0,0756;0,1234;-0,0452;0,1112;
5,537783;0,2072;0,8052;0,4964;-0,2323;-0,2790;-0,0756;0,1234;-0,0452;0,1112;
5,547728;0,2072;0,8052;0,4964;0,2380;-0,0603;-0,1536;0,1234;-0,0452;0,1112;
5,557491;0,2072;0,8052;0,4964;0,3440;-0,2073;-0,2394;0,1234;-0,0452;0,1112;
5,582608;0,2072;0,8052;0,4964;0,0891;-0,2696;-0,0051;0,1234;-0,0452;0,1112;
5,593655;0,2072;0,8052;0,4964;0,0891;-0,2696;-0,0051;0,0379;0,0061;0,0721;
5,602198;0,2072;0,8052;0,4964;0,0306;-0,2954;-0,1752;0,0379;0,0061;0,0721;
5,612901;0,1906;0,8179;0,4446;0,0306;-0,2954;-0,1752;0,0379;0,0061;0,0721;
5,620824;0,1906;0,8179;0,4446;0,1434;-0,0903;-0,6003;0,0379;0,0061;0,0721;
5,636772;0,1906;0,8179;0,4446;0,3369;-0,0752;-0,5527;0,0379;0,0061;0,0721;
5,646423;0,1906;0,8179;0,4446;0,3369;-0,0752;-0,5527;-0,1466;0,1344;-0,0721;
5,656378;0,1906;0,8179;0,4446;0,5855;-0,0402;0,3669;-0,1466;0,1344;-0,0721;
5,666169;0,1554;0,8101;0,5248;0,5855;-0,0402;0,3669;-0,1466;0,1344;-0,0721;
5,676815;0,1554;0,8101;0,5248;0,0102;-0,0732;0,1419;-0,1466;0,1344;-0,0721;
5,696311;0,1554;0,8101;0,5248;-0,2478;-0,1507;0,0312;-0,1466;0,1344;-0,0721;
5,711353;0,1554;0,8101;0,5248;-0,2478;-0,1507;0,0312;0,0941;-0,1136;0,0195;
5,716414;0,1554;0,8101;0,5248;-0,0389;-0,0652;0,4304;0,0941;-0,1136;0,0195;
5,731419;0,1769;0,8189;0,4964;-0,0389;-0,0652;0,4304;0,0941;-0,1136;0,0195;
5,736217;0,1769;0,8189;0,4964;0,1881;0,0123;0,1238;0,0941;-0,1136;0,0195;
5,756583;0,1769;0,8189;0,4964;0,0499;-0,0184;-0,3662;0,0941;-0,1136;0,0195;
5,776435;0,1769;0,8189;0,4964;0,0483;0,2012;-0,0939;0,0941;-0,1136;0,0195;
5,780002;0,1769;0,8189;0,4964;0,0483;0,2012;-0,0939;-0,0244;-0,1210;0,0354;
5,796681;0,1681;0,8424;0,5590;0,0483;0,2012;-0,0939;-0,0244;-0,1210;0,0354;
5,801155;0,1681;0,8424;0,5590;-0,3427;0,1137;0,0743;-0,0244;-0,1210;0,0354;
5,817046;0,1681;0,8424;0,5590;-0,1267;0,2173;0,2979;-0,0244;-0,1210;0,0354;
5,837980;0,1681;0,8424;0,5590;0,0214;0,2146;0,0730;-0,0244;-0,1210;0,0354;
5,846460;0,1681;0,8424;0,5590;0,0214;0,2146;0,0730;0,0098;0,0403;0,0379;
5,863595;0,1681;0,8424;0,5590;0,0157;0,1570;0,1059;0,0098;0,0403;0,0379;
5,869998;0,1769;0,8287;0,5336;0,0157;0,1570;0,1059;0,0098;0,0403;0,0379;
5,880754;0,1769;0,8287;0,5336;-0,1427;0,0496;0,0631;0,0098;0,0403;0,0379;
5,897730;0,1769;0,8287;0,5336;0,2965;0,2745;0,0192;0,0098;0,0403;0,0379;
5,910795;0,1769;0,8287;0,5336;0,2965;0,2745;0,0192;-0,0232;-0,0452;-0,0538;
5,920298;0,1769;0,8287;0,5336;0,2566;0,2173;-0,3678;-0,0232;-0,0452;-0,0538;
5,934639;0,1945;0,8111;0,5365;0,2566;0,2173;-0,3678;-0,0232;-0,0452;-0,0538;
5,938008;0,1945;0,8111;0,5365;-0,0041;0,0285;0,0170;-0,0232;-0,0452;-0,0538;
5,956461;0,1945;0,8111;0,5365;-0,0089;-0,2188;0,0131;-0,0232;-0,0452;-0,0538;
5,973206;0,1945;0,8111;0,5365;-0,0089;-0,2188;0,0131;0,0232;-0,0745;-0,0049;
5,976158;0,1945;0,8111;0,5365;0,0328;-0,0867;-0,1554;0,0232;-0,0745;-0,0049;
5,991243;0,1564;0,7994;0,5267;0,0328;-0,0867;-0,1554;0,0232;-0,0745;-0,0049;
5,996242;0,1564;0,7994;0,5267;-0,3044;-0,2301;0,1676;0,0232;-0,0745;-0,0049;
6,016494;0,1564;0,7994;0,5267;-0,0823;-0,1266;-0,0760;0,0232;-0,0745;-0,0049;
6,036344;0,1564;0,7994;0,5267;0,3870;0,2107;-0,2393;0,0232;-0,0745;-0,0049;
6,039516;0,1564;0,7994;0,5267;0,3870;0,2107;-0,2393;-0,0782;0,0171;-0,0354;
6,056320;0,1407;0,8052;0,5560;0,3870;0,2107;-0,2393;-0,0782;0,0171;-0,0354;
6,059442;0,1407;0,8052;0,5560;-0,1896;0,0060;-0,0263;-0,0782;0,0171;-0,0354;
6,076224;0,1407;0,8052;0,5560;-0,4373;-0,1514;0,2935;-0,0782;0,0171;-0,0354;
6,096327;0,1407;0,8052;0,5560;-0,0848;0,0441;0,1643;-0,0782;0,0171;-0,0354;
6,101959;0,1407;0,8052;0,5560;-0,0848;0,0441;0,1643;0,0403;0,0171;0,0049;
6,116634;0,1407;0,8052;0,5560;0,4150;0,2273;0,3285;0,0403;0,0171;0,0049;
6,121696;0,1818;0,8258;0,5082;0,4150;0,2273;0,3285;0,0403;0,0171;0,0049;
6,136411;0,1818;0,8258;0,5082;0,0079;0,1067;-0,0672;0,0403;0,0171;0,0049;
6,157167;0,1818;0,8258;0,5082;-0,1108;0,0300;-0,1753;0,0403;0,0171;0,0049;
6,167445;0,1818;0,8258;0,5082;-0,1108;0,0300;-0,1753;0,0452;-0,0953;0,0648;
6,176807;0,1818;0,8258;0,5082;-0,1318;0,0423;0,1189;0,0452;-0,0953;0,0648;
6,192180;0,2130;0,8404;0,5209;-0,1318;0,0423;0,1189;0,0452;-0,0953;0,0648;
6,199790;0,2130;0,8404;0,5209;0,0070;0,0867;-0,0043;0,0452;-0,0953;0,0648;
6,217645;0,2130;0,8404;0,5209;0,3016;0,1251;-0,0350;0,0452;-0,0953;0,0648;
6,232597;0,2130;0,8404;0,5209;0,3016;0,1251;-0,0350;-0,0159;0,0379;0,0232;
6,240320;0,2130;0,8404;0,5209;-0,0668;0,1580;-0,0658;-0,0159;0,0379;0,0232;
6,258585;0,1779;0,8189;0,5209;-0,0668;0,1580;-0,0658;-0,0159;0,0379;0,0232;
6,262076;0,1779;0,8189;0,5209;-0,2775;-0,0142;-0,0940;-0,0159;0,0379;0,0232;
6,277888;0,1779;0,8189;0,5209;-0,0102;-0,0199;0,0297;-0,0159;0,0379;0,0232;
6,296374;0,1779;0,8189;0,5209;0,2862;0,1865;0,0451;-0,0159;0,0379;0,0232;
6,299323;0,1779;0,8189;0,5209;0,2862;0,1865;0,0451;-0,0867;0,0770;0,0037;
6,316460;0,1964;0,8238;0,5297;0,2862;0,1865;0,0451;-0,0867;0,0770;0,0037;
6,319797;0,1964;0,8238;0,5297;-0,1527;-0,0413;-0,2734;-0,0867;0,0770;0,0037;
6,336486;0,1964;0,8238;0,5297;0,0017;0,0287;0,0883;-0,0867;0,0770;0,0037;
6,356525;0,1964;0,8238;0,5297;-0,0013;-0,0459;0,1857;-0,0867;0,0770;0,0037;
6,361426;0,1964;0,8238;0,5297;-0,0013;-0,0459;0,1857;-0,0122;0,0244;-0,0012;
6,376401;0,1964;0,8238;0,5297;0,0495;0,1515;0,0787;-0,0122;0,0244;-0,0012;
6,381193;0,2111;0,8306;0,5267;0,0495;0,1515;0,0787;-0,0122;0,0244;-0,0012;
6,396561;0,2111;0,8306;0,5267;0,1211;0,0728;0,0033;-0,0122;0,0244;-0,0012;
6,416550;0,2111;0,8306;0,5267;0,0616;0,1392;0,0174;-0,0122;0,0244;-0,0012;
6,426303;0,2111;0,8306;0,5267;0,0616;0,1392;0,0174;0,0183;-0,0672;0,0110;
6,436306;0,2111;0,8306;0,5267;-0,1919;0,0349;0,0334;0,0183;-0,0672;0,0110;
6,446334;0,2003;0,8209;0,5209;-0,1919;0,0349;0,0334;0,0183;-0,0672;0,0110;
6,456624;0,2003;0,8209;0,5209;0,0654;0,0367;0,0333;0,0183;-0,0672;0,0110;
6,476323;0,2003;0,8209;0,5209;0,1404;0,1030;-0,0070;0,0183;-0,0672;0,0110;
6,491604;0,2003;0,8209;0,5209;0,1404;0,1030;-0,0070;0,0476;-0,0599;0,0379;
6,496100;0,2003;0,8209;0,5209;-0,1290;0,0882;0,1797;0,0476;-0,0599;0,0379;
6,511207;0,1886;0,8189;0,5228;-0,1290;0,0882;0,1797;0,0476;-0,0599;0,0379;
6,516746;0,1886;0,8189;0,5228;-0,2651;-0,0468;0,0900;0,0476;-0,0599;0,0379;
6,536326;0,1886;0,8189;0,5228;-0,0574;0,0348;-0,0990;0,0476;-0,0599;0,0379;
6,557468;0,1886;0,8189;0,5228;0,2408;0,0809;0,0071;0,0476;-0,0599;0,0379;
6,560386;0,1886;0,8189;0,5228;0,2408;0,0809;0,0071;0,0134;0,0098;0,0501;
6,576310;0,1788;0,8140;0,5082;0,2408;0,0809;0,0071;0,0134;0,0098;0,0501;
6,578337;0,1788;0,8140;0,5082;-0,1171;-0,0400;-0,0741;0,0134;0,0098;0,0501;
6,596457;0,1788;0,8140;0,5082;-0,2109;-0,0547;-0,1366;0,0134;0,0098;0,0501;
6,617473;0,1788;0,8140;0,5082;-0,0102;0,0737;-0,1324;0,0134;0,0098;0,0501;
6,622662;0,1788;0,8140;0,5082;-0,0102;0,0737;-0,1324;-0,0464;0,0562;0,0134;
6,636741;0,1788;0,8140;0,5082;0,0826;0,1387;0,0989;-0,0464;0,0562;0,0134;
6,642608;0,1788;0,8248;0,5453;0,0826;0,1387;0,0989;-0,0464;0,0562;0,0134;
6,657206;0,1788;0,8248;0,5453;-0,0928;0,0648;0,3268;-0,0464;0,0562;0,0134;
6,676999;0,1788;0,8248;0,5453;-0,4633;-0,0336;0,0310;-0,0464;0,0562;0,0134;
6,691956;0,1788;0,8248;0,5453;-0,4633;-0,0336;0,0310;0,0379;-0,0733;0,1173;
6,698628;0,1788;0,8248;0,5453;-0,4998;-0,0439;0,0578;0,0379;-0,0733;0,1173;
6,711042;0,1085;0,8316;0,5336;-0,4998;-0,0439;0,0578;0,0379;-0,0733;0,1173;
6,720950;0,1085;0,8316;0,5336;-0,7083;-0,0208;0,0416;0,0379;-0,0733;0,1173;
6,737367;0,1085;0,8316;0,5336;-1,2793;0,2827;0,0744;0,0379;-0,0733;0,1173;
6,752769;0,1085;0,8316;0,5336;-1,2793;0,2827;0,0744;-0,0379;0,0037;0,3677;
6,759421;0,1085;0,8316;0,5336;-2,0957;0,7192;0,5988;-0,0379;0,0037;0,3677;
6,773002;-0,1319;0,9958;0,8101;-2,0957;0,7192;0,5988;-0,0379;0,0037;0,3677;
6,783071;-0,1319;0,9958;0,8101;-3,1966;1,5669;1,9365;-0,0379;0,0037;0,3677;
6,797596;-0,1319;0,9958;0,8101;-2,9891;1,8928;2,9469;-0,0379;0,0037;0,3677;
6,816371;-0,1319;0,9958;0,8101;-2,4751;2,8859;4,0025;-0,0379;0,0037;0,3677;
6,819907;-0,1319;0,9958;0,8101;-2,4751;2,8859;4,0025;0,7868;0,1698;0,9420;
6,836307;-0,0674;1,2821;0,9235;-2,4751;2,8859;4,0025;0,7868;0,1698;0,9420;
6,839181;-0,0674;1,2821;0,9235;-2,5471;4,3015;3,6339;0,7868;0,1698;0,9420;
6,856365;-0,0674;1,2821;0,9235;-2,6680;4,5582;3,9174;0,7868;0,1698;0,9420;
6,876498;-0,0674;1,2821;0,9235;-1,8523;4,3264;4,4849;0,7868;0,1698;0,9420;
6,881409;-0,0674;1,2821;0,9235;-1,8523;4,3264;4,4849;1,4526;0,2346;1,4868;
6,896210;-0,0674;1,2821;0,9235;-1,0375;5,2563;4,2731;1,4526;0,2346;1,4868;
6,901191;0,3577;1,7131;0,9010;-1,0375;5,2563;4,2731;1,4526;0,2346;1,4868;
6,916444;0,3577;1,7131;0,9010;0,1114;8,5586;4,4668;1,4526;0,2346;1,4868;
6,936461;0,3577;1,7131;0,9010;4,7857;7,4899;3,3846;1,4526;0,2346;1,4868;
6,946569;0,3577;1,7131;0,9010;4,7857;7,4899;3,3846;2,5803;-0,2407;0,4154;
6,956253;0,3577;1,7131;0,9010;7,7276;6,6978;4,8331;2,5803;-0,2407;0,4154;
6,966241;1,1922;1,2147;0,7065;7,7276;6,6978;4,8331;2,5803;-0,2407;0,4154;
6,978211;1,1922;1,2147;0,7065;9,0800;4,6241;4,7134;2,5803;-0,2407;0,4154;
6,996449;1,1922;1,2147;0,7065;7,9235;2,1065;1,6505;2,5803;-0,2407;0,4154;
7,012749;1,1922;1,2147;0,7065;7,9235;2,1065;1,6505;2,6573;-1,1619;-0,6060;
7,020062;1,1922;1,2147;0,7065;8,0755;0,4368;-1,2458;2,6573;-1,1619;-0,6060;
7,031804;1,1199;0,8101;-0,0616;8,0755;0,4368;-1,2458;2,6573;-1,1619;-0,6060;
7,036550;1,1199;0,8101;-0,0616;7,8618;-0,6634;-1,9308;2,6573;-1,1619;-0,6060;
7,057667;1,1199;0,8101;-0,0616;7,2620;-1,3346;-2,4351;2,6573;-1,1619;-0,6060;
7,081155;1,1199;0,8101;-0,0616;6,5719;-2,7927;-3,6924;2,6573;-1,1619;-0,6060;
7,091317;1,1199;0,8101;-0,0616;6,5719;-2,7927;-3,6924;0,9090;-1,4025;-1,5614;
7,097104;0,5951;0,3782;0,0313;6,5719;-2,7927;-3,6924;0,9090;-1,4025;-1,5614;
7,099798;0,5951;0,3782;0,0313;5,4545;-3,9189;-2,9890;0,9090;-1,4025;-1,5614;
7,117624;0,5951;0,3782;0,0313;2,2264;-5,3257;0,2383;0,9090;-1,4025;-1,5614;
7,137913;0,5951;0,3782;0,0313;1,4260;-6,3599;0,8842;0,9090;-1,4025;-1,5614;
7,147624;0,5951;0,3782;0,0313;1,4260;-6,3599;0,8842;1,5247;-2,4239;-0,7208;
7,161956;0,5951;0,3782;0,0313;1,4890;-6,4243;-0,2481;1,5247;-2,4239;-0,7208;
7,169625;0,6244;0,3459;-0,3479;1,4890;-6,4243;-0,2481;1,5247;-2,4239;-0,7208;
7,179792;0,6244;0,3459;-0,3479;2,8720;-5,5840;-1,9751;1,5247;-2,4239;-0,7208;
7,196272;0,6244;0,3459;-0,3479;1,5901;-5,9012;-1,8050;1,5247;-2,4239;-0,7208;
7,206377;0,6244;0,3459;-0,3479;1,5901;-5,9012;-1,8050;0,2944;-2,3775;-0,8344;
7,216463;0,6244;0,3459;-0,3479;1,1096;-5,8810;-0,6652;0,2944;-2,3775;-0,8344;
7,226178;0,2130;0,3538;-0,2355;1,1096;-5,8810;-0,6652;0,2944;-2,3775;-0,8344;
7,236276;0,2130;0,3538;-0,2355;-0,2590;-5,2925;0,0933;0,2944;-2,3775;-0,8344;
7,256401;0,2130;0,3538;-0,2355;-0,6082;-5,1737;0,4700;0,2944;-2,3775;-0,8344;
7,271497;0,2130;0,3538;-0,2355;-0,6082;-5,1737;0,4700;0,4252;-2,8503;-0,3738;
7,276764;0,2130;0,3538;-0,2355;-0,5138;-4,6380;1,1909;0,4252;-2,8503;-0,3738;
7,291779;0,0704;0,4534;-0,2081;-0,5138;-4,6380;1,1909;0,4252;-2,8503;-0,3738;
7,296859;0,0704;0,4534;-0,2081;-1,1654;-4,7294;1,7076;0,4252;-2,8503;-0,3738;
7,316869;0,0704;0,4534;-0,2081;-1,5427;-4,1951;1,3217;0,4252;-2,8503;-0,3738;
7,336942;0,0704;0,4534;-0,2081;-1,2223;-3,5805;0,8840;0,4252;-2,8503;-0,3738;
7,344267;0,0704;0,4534;-0,2081;-1,2223;-3,5805;0,8840;-0,4386;-2,3274;-0,2028;
7,361837;-0,0215;0,5326;-0,1485;-1,2223;-3,5805;0,8840;-0,4386;-2,3274;-0,2028;
7,369955;-0,0215;0,5326;-0,1485;-1,2738;-3,0897;1,4126;-0,4386;-2,3274;-0,2028;
7,377382;-0,0215;0,5326;-0,1485;-1,5937;-3,6368;2,2967;-0,4386;-2,3274;-0,2028;
7,397647;-0,0215;0,5326;-0,1485;-1,9433;-4,1858;3,6770;-0,4386;-2,3274;-0,2028;
7,402750;-0,0215;0,5326;-0,1485;-1,9433;-4,1858;3,6770;-0,3787;-1,9364;0,0428;
7,416493;-0,0215;0,5326;-0,1485;-2,0361;-3,7828;4,6746;-0,3787;-1,9364;0,0428;
7,423200;-0,1730;0,5834;0,0919;-2,0361;-3,7828;4,6746;-0,3787;-1,9364;0,0428;
7,436255;-0,1730;0,5834;0,0919;-2,0905;-3,4948;4,1707;-0,3787;-1,9364;0,0428;
7,456240;-0,1730;0,5834;0,0919;-1,8674;-3,9413;3,1512;-0,3787;-1,9364;0,0428;
7,466496;-0,1730;0,5834;0,0919;-1,8674;-3,9413;3,1512;-0,7196;-1,1985;0,1833;
7,476610;-0,1730;0,5834;0,0919;-2,4884;-3,7703;3,1427;-0,7196;-1,1985;0,1833;
7,486512;-0,2805;0,5404;0,1935;-2,4884;-3,7703;3,1427;-0,7196;-1,1985;0,1833;
7,496584;-0,2805;0,5404;0,1935;-2,5878;-3,8818;3,6128;-0,7196;-1,1985;0,1833;
7,516615;-0,2805;0,5404;0,1935;-2,4470;-4,3782;4,3656;-0,7196;-1,1985;0,1833;
7,532111;-0,2805;0,5404;0,1935;-2,4470;-4,3782;4,3656;-0,3812;-0,7819;0,6170;
7,536622;-0,2805;0,5404;0,1935;-3,4046;-3,8473;4,5032;-0,3812;-0,7819;0,6170;
7,551752;-0,3860;0,6176;0,1495;-3,4046;-3,8473;4,5032;-0,3812;-0,7819;0,6170;
7,556628;-0,3860;0,6176;0,1495;-3,1249;-3,7080;3,1582;-0,3812;-0,7819;0,6170;
7,577703;-0,3860;0,6176;0,1495;-2,9594;-3,5410;2,3849;-0,3812;-0,7819;0,6170;
7,597581;-0,3860;0,6176;0,1495;-2,1875;-3,8921;1,9327;-0,3812;-0,7819;0,6170;
7,608651;-0,3860;0,6176;0,1495;-2,1875;-3,8921;1,9327;-1,2840;0,4472;1,0030;
7,617676;-0,3332;0,7231;0,2922;-2,1875;-3,8921;1,9327;-1,2840;0,4472;1,0030;
7,628346;-0,3332;0,7231;0,2922;-2,6304;-3,0940;2,6702;-1,2840;0,4472;1,0030;
7,641007;-0,3332;0,7231;0,2922;-2,4335;-2,5979;2,9199;-1,2840;0,4472;1,0030;
7,656279;-0,3332;0,7231;0,2922;-1,3492;-2,0236;3,9059;-1,2840;0,4472;1,0030;
7,661640;-0,3332;0,7231;0,2922;-1,3492;-2,0236;3,9059;-0,6817;0,1857;1,1179;
7,676466;-0,3332;0,7231;0,2922;-1,0979;-2,2792;3,9844;-0,6817;0,1857;1,1179;
7,681118;-0,1427;0,9108;0,3156;-1,0979;-2,2792;3,9844;-0,6817;0,1857;1,1179;
7,696340;-0,1427;0,9108;0,3156;-1,0254;-1,0702;2,4365;-0,6817;0,1857;1,1179;
7,716503;-0,1427;0,9108;0,3156;-0,9954;-0,5888;1,5467;-0,6817;0,1857;1,1179;
7,726389;-0,1427;0,9108;0,3156;-0,9954;-0,5888;1,5467;-1,6420;1,3940;1,0763;
7,737811;-0,1427;0,9108;0,3156;-1,0204;-0,9248;2,3886;-1,6420;1,3940;1,0763;
7,746577;-0,0792;0,9587;0,5375;-1,0204;-0,9248;2,3886;-1,6420;1,3940;1,0763;
7,756778;-0,0792;0,9587;0,5375;-0,6592;-0,7338;2,7615;-1,6420;1,3940;1,0763;
7,776836;-0,0792;0,9587;0,5375;-0,5644;0,5457;3,0240;-1,6420;1,3940;1,0763;
7,792126;-0,0792;0,9587;0,5375;-0,5644;0,5457;3,0240;-2,0232;2,2846;0,9468;
7,797117;-0,0792;0,9587;0,5375;-0,3059;1,0030;2,6832;-2,0232;2,2846;0,9468;
7,812678;0,0225;1,1297;0,9157;-0,3059;1,0030;2,6832;-2,0232;2,2846;0,9468;
7,822341;0,0225;1,1297;0,9157;-0,6142;1,2974;3,8021;-2,0232;2,2846;0,9468;
7,837662;0,0225;1,1297;0,9157;0,1459;2,5872;5,4116;-2,0232;2,2846;0,9468;
7,858005;0,0225;1,1297;0,9157;0,5732;3,3972;5,3722;-2,0232;2,2846;0,9468;
7,867830;0,0225;1,1297;0,9157;0,5732;3,3972;5,3722;-1,3500;2,6108;0,9151;
7,877744;0,0029;1,2323;0,8854;0,5732;3,3972;5,3722;-1,3500;2,6108;0,9151;
7,887622;0,0029;1,2323;0,8854;0,2572;3,5414;3,1972;-1,3500;2,6108;0,9151;
7,897528;0,0029;1,2323;0,8854;-0,0962;3,6368;3,8521;-1,3500;2,6108;0,9151;
7,917124;0,0029;1,2323;0,8854;2,6442;4,3194;5,2073;-1,3500;2,6108;0,9151;
7,921315;0,0029;1,2323;0,8854;2,6442;4,3194;5,2073;-0,8711;2,9212;1,2645;
7,936315;0,0029;1,2323;0,8854;4,4563;4,3887;3,8790;-0,8711;2,9212;1,2645;
7,941203;0,5961;1,3290;0,8424;4,4563;4,3887;3,8790;-0,8711;2,9212;1,2645;
7,956302;0,5961;1,3290;0,8424;4,9642;4,8313;2,6486;-0,8711;2,9212;1,2645;
7,976633;0,5961;1,3290;0,8424;7,6719;5,1721;2,6094;-0,8711;2,9212;1,2645;
7,986377;0,5961;1,3290;0,8424;7,6719;5,1721;2,6094;0,2309;1,7349;0,8186;
7,996379;0,5961;1,3290;0,8424;8,1014;4,5346;1,0039;0,2309;1,7349;0,8186;
8,006185;0,8394;1,1521;0,3772;8,1014;4,5346;1,0039;0,2309;1,7349;0,8186;
8,016539;0,8394;1,1521;0,3772;7,8477;3,6793;-1,3676;0,2309;1,7349;0,8186;
8,038369;0,8394;1,1521;0,3772;7,5920;2,9175;-1,6756;0,2309;1,7349;0,8186;
8,052165;0,8394;1,1521;0,3772;7,5920;2,9175;-1,6756;0,4533;0,8503;0,3054;
8,056583;0,8394;1,1521;0,3772;9,2380;2,4690;-1,8667;0,4533;0,8503;0,3054;
8,072829;0,8531;0,8922;0,2121;9,2380;2,4690;-1,8667;0,4533;0,8503;0,3054;
8,083374;0,8531;0,8922;0,2121;8,9579;1,5048;-2,9094;0,4533;0,8503;0,3054;
8,099520;0,8531;0,8922;0,2121;6,4218;0,3957;-2,5660;0,4533;0,8503;0,3054;
8,119015;0,8531;0,8922;0,2121;4,6462;-0,0752;-0,5571;0,4533;0,8503;0,3054;
8,128384;0,8531;0,8922;0,2121;4,6462;-0,0752;-0,5571;0,4899;-0,2517;-0,0562;
8,140121;0,4329;0,7349;0,3958;4,6462;-0,0752;-0,5571;0,4899;-0,2517;-0,0562;
8,147587;0,4329;0,7349;0,3958;3,5138;-0,6266;-0,0386;0,4899;-0,2517;-0,0562;
8,157609;0,4329;0,7349;0,3958;2,3818;-0,9982;-0,9996;0,4899;-0,2517;-0,0562;
8,176511;0,4329;0,7349;0,3958;1,2022;-1,2479;-0,4822;0,4899;-0,2517;-0,0562;
8,182526;0,4329;0,7349;0,3958;1,2022;-1,2479;-0,4822;0,3164;-0,1918;0,0843;
8,197122;0,4329;0,7349;0,3958;0,3145;-1,5818;0,7594;0,3164;-0,1918;0,0843;
8,201165;0,2365;0,6899;0,4212;0,3145;-1,5818;0,7594;0,3164;-0,1918;0,0843;
8,216431;0,2365;0,6899;0,4212;0,2625;-1,5003;-0,5559;0,3164;-0,1918;0,0843;
8,236314;0,2365;0,6899;0,4212;-0,4392;-1,4975;-0,7867;0,3164;-0,1918;0,0843;
8,246642;0,2365;0,6899;0,4212;-0,4392;-1,4975;-0,7867;0,1271;-0,2053;0,1075;
8,256283;0,2365;0,6899;0,4212;-0,9463;-1,3358;1,2899;0,1271;-0,2053;0,1075;
8,266554;0,1417;0,7192;0,5648;-0,9463;-1,3358;1,2899;0,1271;-0,2053;0,1075;
8,276514;0,1417;0,7192;0,5648;-0,6123;-1,1513;1,0626;0,1271;-0,2053;0,1075;
8,296757;0,1417;0,7192;0,5648;-0,7666;-0,9596;0,2569;0,1271;-0,2053;0,1075;
8,313905;0,1417;0,7192;0,5648;-0,7666;-0,9596;0,2569;0,0098;-0,0513;0,1051;
8,317657;0,1417;0,7192;0,5648;-0,5768;-0,0927;1,3411;0,0098;-0,0513;0,1051;
8,333897;0,1700;1,2499;0,7134;-0,5768;-0,0927;1,3411;0,0098;-0,0513;0,1051;
8,344037;0,1700;1,2499;0,7134;-0,9065;0,8800;0,6150;0,0098;-0,0513;0,1051;
8,360017;0,1700;1,2499;0,7134;1,4617;4,1755;4,2247;0,0098;-0,0513;0,1051;
8,376454;0,1700;1,2499;0,7134;1,7113;1,2587;5,0706;0,0098;-0,0513;0,1051;
8,379653;0,1700;1,2499;0,7134;1,7113;1,2587;5,0706;0,4704;0,4362;-0,1686;
8,396415;0,0430;0,7847;0,1808;1,7113;1,2587;5,0706;0,4704;0,4362;-0,1686;
8,398644;0,0430;0,7847;0,1808;-1,8129;-0,1359;-1,2227;0,4704;0,4362;-0,1686;
8,416382;0,0430;0,7847;0,1808;-1,1729;-0,4730;-3,2593;0,4704;0,4362;-0,1686;
8,436331;0,0430;0,7847;0,1808;-0,7342;-0,5402;-2,7812;0,4704;0,4362;-0,1686;
8,441764;0,0430;0,7847;0,1808;-0,7342;-0,5402;-2,7812;-0,3409;0,1442;0,0195;
8,456339;0,0430;0,7847;0,1808;-0,4087;-1,1759;-1,6965;-0,3409;0,1442;0,0195;
8,462875;0,1573;0,9577;0,4915;-0,4087;-1,1759;-1,6965;-0,3409;0,1442;0,0195;
8,478759;0,1573;0,9577;0,4915;-0,2564;0,3142;-0,5787;-0,3409;0,1442;0,0195;
8,496733;0,1573;0,9577;0,4915;3,1614;1,7385;4,8225;-0,3409;0,1442;0,0195;
8,507596;0,1573;0,9577;0,4915;3,1614;1,7385;4,8225;0,5168;0,0159;-0,1283;
8,517449;0,1573;0,9577;0,4915;1,1885;0,2507;2,4021;0,5168;0,0159;-0,1283;
8,528861;0,0762;0,7456;0,2296;1,1885;0,2507;2,4021;0,5168;0,0159;-0,1283;
8,537691;0,0762;0,7456;0,2296;-0,8128;-0,9477;-2,0067;0,5168;0,0159;-0,1283;
8,557394;0,0762;0,7456;0,2296;-0,4765;-0,6741;-2,1618;0,5168;0,0159;-0,1283;
8,572761;0,0762;0,7456;0,2296;-0,4765;-0,6741;-2,1618;-0,1784;-0,1063;0,0354;
8,581086;0,0762;0,7456;0,2296;0,2710;-0,0540;-0,1214;-0,1784;-0,1063;0,0354;
8,592324;0,2590;0,8756;0,6440;0,2710;-0,0540;-0,1214;-0,1784;-0,1063;0,0354;
8,601589;0,2590;0,8756;0,6440;0,9759;0,2003;0,8327;-0,1784;-0,1063;0,0354;
8,616455;0,2590;0,8756;0,6440;0,8510;0,1942;1,5445;-0,1784;-0,1063;0,0354;
8,636321;0,2590;0,8756;0,6440;0,0227;-0,1269;0,5766;-0,1784;-0,1063;0,0354;
8,639577;0,2590;0,8756;0,6440;0,0227;-0,1269;0,5766;0,0208;0,0379;-0,0012;
8,656340;0,0997;0,8131;0,4437;0,0227;-0,1269;0,5766;0,0208;0,0379;-0,0012;
8,659153;0,0997;0,8131;0,4437;-0,4861;-0,3776;-0,6688;0,0208;0,0379;-0,0012;
8,676783;0,0997;0,8131;0,4437;-0,5641;-0,3365;-0,4648;0,0208;0,0379;-0,0012;
8,696705;0,0997;0,8131;0,4437;0,2886;-0,0680;0,1725;0,0208;0,0379;-0,0012;
8,701772;0,0997;0,8131;0,4437;0,2886;-0,0680;0,1725;-0,0134;0,0012;0,0098;
8,716768;0,0997;0,8131;0,4437;0,6465;0,0613;0,9564;-0,0134;0,0012;0,0098;
8,721360;0,1994;0,8336;0,5707;0,6465;0,0613;0,9564;-0,0134;0,0012;0,0098;
8,736837;0,1994;0,8336;0,5707;0,4544;-0,0175;0,9885;-0,0134;0,0012;0,0098;
8,759080;0,1994;0,8336;0,5707;0,0584;-0,2018;-0,1739;-0,0134;0,0012;0,0098;
8,767939;0,1994;0,8336;0,5707;0,0584;-0,2018;-0,1739;-0,0538;-0,0195;-0,0110;
8,777772;0,1994;0,8336;0,5707;0,2119;-0,0844;-0,4301;-0,0538;-0,0195;-0,0110;
8,789038;0,1671;0,8375;0,5326;0,2119;-0,0844;-0,4301;-0,0538;-0,0195;-0,0110;
8,798980;0,1671;0,8375;0,5326;0,0878;-0,0557;0,0860;-0,0538;-0,0195;-0,0110;
8,817498;0,1671;0,8375;0,5326;-0,0037;-0,0865;0,5405;-0,0538;-0,0195;-0,0110;
8,833356;0,1671;0,8375;0,5326;-0,0037;-0,0865;0,5405;0,0391;-0,0599;-0,0281;
8,839598;0,1671;0,8375;0,5326;-0,0122;-0,2045;0,4323;0,0391;-0,0599;-0,0281;
8,852642;0,2062;0,8453;0,5179;-0,0122;-0,2045;0,4323;0,0391;-0,0599;-0,0281;
8,859890;0,2062;0,8453;0,5179;0,5249;0,0501;0,3782;0,0391;-0,0599;-0,0281;
8,877614;0,2062;0,8453;0,5179;0,2313;-0,0360;0,0446;0,0391;-0,0599;-0,0281;
8,897907;0,2062;0,8453;0,5179;-0,1626;-0,1948;-0,1642;0,0391;-0,0599;-0,0281;
8,908524;0,2062;0,8453;0,5179;-0,1626;-0,1948;-0,1642;0,0049;-0,0586;-0,0232;
8,917343;0,1906;0,8287;0,5414;-0,1626;-0,1948;-0,1642;0,0049;-0,0586;-0,0232;
8,924694;0,1906;0,8287;0,5414;0,0454;-0,0998;0,2974;0,0049;-0,0586;-0,0232;
8,937421;0,1906;0,8287;0,5414;0,2096;-0,1108;0,4178;0,0049;-0,0586;-0,0232;
8,957679;0,1906;0,8287;0,5414;0,0866;0,0020;0,1857;0,0049;-0,0586;-0,0232;
8,964801;0,1906;0,8287;0,5414;0,0866;0,0020;0,1857;-0,0073;0,0037;0,0134;
8,977496;0,1906;0,8287;0,5414;-0,1327;-0,1196;0,0138;-0,0073;0,0037;0,0134;
8,987854;0,1749;0,8297;0,5365;-0,1327;-0,1196;0,0138;-0,0073;0,0037;0,0134;
8,997229;0,1749;0,8297;0,5365;-0,0215;-0,1132;0,3189;-0,0073;0,0037;0,0134;
9,018110;0,1749;0,8297;0,5365;-0,0109;-0,0694;0,2032;-0,0073;0,0037;0,0134;
9,027342;0,1749;0,8297;0,5365;-0,0109;-0,0694;0,2032;0,0244;-0,0562;0,0623;
9,040906;0,1749;0,8297;0,5365;-0,1605;-0,1430;-0,1013;0,0244;-0,0562;0,0623;
9,047545;0,2130;0,8541;0,5130;-0,1605;-0,1430;-0,1013;0,0244;-0,0562;0,0623;
9,057407;0,2130;0,8541;0,5130;0,4262;0,2173;0,2041;0,0244;-0,0562;0,0623;
9,077385;0,2130;0,8541;0,5130;0,2493;0,0237;0,0204;0,0244;-0,0562;0,0623;
9,092650;0,2130;0,8541;0,5130;0,2493;0,0237;0,0204;-0,0257;-0,0782;-0,0354;
9,099836;0,2130;0,8541;0,5130;0,1853;-0,0037;-0,3471;-0,0257;-0,0782;-0,0354;
9,111242;0,2013;0,8463;0,5257;0,1853;-0,0037;-0,3471;-0,0257;-0,0782;-0,0354;
9,116341;0,2013;0,8463;0,5257;0,4009;0,0582;0,1709;-0,0257;-0,0782;-0,0354;
9,136271;0,2013;0,8463;0,5257;0,1846;0,0785;0,1895;-0,0257;-0,0782;-0,0354;
9,156341;0,2013;0,8463;0,5257;-0,0206;0,0094;0,1801;-0,0257;-0,0782;-0,0354;
9,159249;0,2013;0,8463;0,5257;-0,0206;0,0094;0,1801;-0,0098;-0,0464;0,0086;
9,176395;0,1710;0,8228;0,5355;-0,0206;0,0094;0,1801;-0,0098;-0,0464;0,0086;
9,178997;0,1710;0,8228;0,5355;-0,3095;-0,2179;0,0440;-0,0098;-0,0464;0,0086;
9,196293;0,1710;0,8228;0,5355;-0,0475;-0,1237;0,3032;-0,0098;-0,0464;0,0086;
9,216419;0,1710;0,8228;0,5355;0,1305;-0,0455;0,3163;-0,0098;-0,0464;0,0086;
9,221745;0,1710;0,8228;0,5355;0,1305;-0,0455;0,3163;-0,0342;0,0293;0,0037;
9,238066;0,1710;0,8228;0,5355;0,0518;-0,0694;0,0424;-0,0342;0,0293;0,0037;
9,243973;0,1827;0,8336;0,5257;0,0518;-0,0694;0,0424;-0,0342;0,0293;0,0037;
9,256930;0,1827;0,8336;0,5257;0,1008;0,0290;0,1005;-0,0342;0,0293;0,0037;
9,278214;0,1827;0,8336;0,5257;-0,0434;-0,0798;0,1244;-0,0342;0,0293;0,0037;
9,292170;0,1827;0,8336;0,5257;-0,0434;-0,0798;0,1244;-0,0293;0,0464;-0,0208;
9,298159;0,1827;0,8336;0,5257;0,2235;0,1424;0,0833;-0,0293;0,0464;-0,0208;
9,309522;0,2091;0,8433;0,5209;0,2235;0,1424;0,0833;-0,0293;0,0464;-0,0208;
9,318324;0,2091;0,8433;0,5209;0,2756;0,1057;0,0458;-0,0293;0,0464;-0,0208;
9,336324;0,2091;0,8433;0,5209;0,0410;0,0079;0,1495;-0,0293;0,0464;-0,0208;
9,351430;0,2091;0,8433;0,5209;0,0410;0,0079;0,1495;0,0440;-0,1063;0,0489;
9,356658;0,2091;0,8433;0,5209;-0,3994;-0,1911;0,0656;0,0440;-0,1063;0,0489;
9,371296;0,1984;0,8482;0,5267;-0,3994;-0,1911;0,0656;0,0440;-0,1063;0,0489;
9,376288;0,1984;0,8482;0,5267;-0,0471;-0,0398;0,0687;0,0440;-0,1063;0,0489;
9,396328;0,1984;0,8482;0,5267;0,1924;0,1528;0,2630;0,0440;-0,1063;0,0489;
9,416225;0,1984;0,8482;0,5267;-0,0799;-0,0926;0,2922;0,0440;-0,1063;0,0489;
9,419122;0,1984;0,8482;0,5267;-0,0799;-0,0926;0,2922;0,0806;-0,1038;0,0648;
9,436858;0,1984;0,8394;0,5033;-0,0799;-0,0926;0,2922;0,0806;-0,1038;0,0648;
9,440341;0,1984;0,8394;0,5033;-0,2095;-0,2072;0,0588;0,0806;-0,1038;0,0648;
9,456885;0,1984;0,8394;0,5033;0,1992;0,0503;-0,0391;0,0806;-0,1038;0,0648;
9,477224;0,1984;0,8394;0,5033;0,3343;0,1085;-0,0365;0,0806;-0,1038;0,0648;
9,485524;0,1984;0,8394;0,5033;0,3343;0,1085;-0,0365;-0,0330;0,0257;0,0232;
9,497467;0,1984;0,8394;0,5033;0,1211;-0,0449;-0,0234;-0,0330;0,0257;0,0232;
9,505847;0,2042;0,8424;0,5336;0,1211;-0,0449;-0,0234;-0,0330;0,0257;0,0232;
9,519406;0,2042;0,8424;0,5336;0,1781;-0,0258;0,0830;-0,0330;0,0257;0,0232;
9,543467;0,2042;0,8424;0,5336;0,0399;0,0740;0,2407;-0,0330;0,0257;0,0232;
9,547878;0,2042;0,8424;0,5336;0,0399;0,0740;0,2407;-0,0367;0,0049;0,0244;
9,556211;0,2042;0,8424;0,5336;-0,1707;-0,0886;-0,0421;-0,0367;0,0049;0,0244;
9,566326;0,1788;0,8306;0,5277;-0,1707;-0,0886;-0,0421;-0,0367;0,0049;0,0244;
9,576352;0,1788;0,8306;0,5277;0,1155;-0,0187;-0,0118;-0,0367;0,0049;0,0244;
9,596343;0,1788;0,8306;0,5277;-0,0157;0,0127;0,4014;-0,0367;0,0049;0,0244;
9,613519;0,1788;0,8306;0,5277;-0,0157;0,0127;0,4014;0,0305;-0,0354;0,0318;
9,616982;0,1788;0,8306;0,5277;-0,0833;0,1279;0,2125;0,0305;-0,0354;0,0318;
9,631451;0,2013;0,8394;0,5013;-0,0833;0,1279;0,2125;0,0305;-0,0354;0,0318;
9,636420;0,2013;0,8394;0,5013;0,1995;0,0242;-0,2607;0,0305;-0,0354;0,0318;
9,656258;0,2013;0,8394;0,5013;0,1587;0,0843;0,0615;0,0305;-0,0354;0,0318;
9,676442;0,2013;0,8394;0,5013;-0,1018;-0,0335;0,0895;0,0305;-0,0354;0,0318;
9,678655;0,2013;0,8394;0,5013;-0,1018;-0,0335;0,0895;0,0819;-0,1295;0,0440;
9,696459;0,2218;0,8326;0,5170;-0,1018;-0,0335;0,0895;0,0819;-0,1295;0,0440;
9,700141;0,2218;0,8326;0,5170;-0,0322;-0,1335;0,3019;0,0819;-0,1295;0,0440;
9,716244;0,2218;0,8326;0,5170;0,2928;0,0137;0,1097;0,0819;-0,1295;0,0440;
9,736487;0,2218;0,8326;0,5170;0,3824;0,1352;-0,1382;0,0819;-0,1295;0,0440;
9,741290;0,2218;0,8326;0,5170;0,3824;0,1352;-0,1382;-0,0305;-0,0403;-0,0159;
9,756295;0,2218;0,8326;0,5170;0,1902;0,0369;-0,1900;-0,0305;-0,0403;-0,0159;
9,761610;0,1544;0,8218;0,5003;0,1902;0,0369;-0,1900;-0,0305;-0,0403;-0,0159;
9,778278;0,1544;0,8218;0,5003;-0,3123;-0,0802;-0,0329;-0,0305;-0,0403;-0,0159;
9,796249;0,1544;0,8218;0,5003;-0,9085;-0,0034;0,5122;-0,0305;-0,0403;-0,0159;
9,806519;0,1544;0,8218;0,5003;-0,9085;-0,0034;0,5122;0,1869;-0,1307;0,2370;
9,816358;0,1544;0,8218;0,5003;-1,7937;-0,3294;1,4915;0,1869;-0,1307;0,2370;
9,827586;-0,0831;0,9157;0,5824;-1,7937;-0,3294;1,4915;0,1869;-0,1307;0,2370;
9,836696;-0,0831;0,9157;0,5824;-2,1364;-0,0685;1,2868;0,1869;-0,1307;0,2370;
9,856401;-0,0831;0,9157;0,5824;-2,9140;1,6064;0,5175;0,1869;-0,1307;0,2370;
9,871904;-0,0831;0,9157;0,5824;-2,9140;1,6064;0,5175;-0,2248;0,4569;0,7086;
9,876854;-0,0831;0,9157;0,5824;-4,9888;2,0155;2,2204;-0,2248;0,4569;0,7086;
9,891870;-0,2922;1,0544;1,2704;-4,9888;2,0155;2,2204;-0,2248;0,4569;0,7086;
9,896658;-0,2922;1,0544;1,2704;-5,0689;1,8181;5,4937;-0,2248;0,4569;0,7086;
9,917382;-0,2922;1,0544;1,2704;-3,9956;2,6684;6,9697;-0,2248;0,4569;0,7086;
9,937876;-0,2922;1,0544;1,2704;-1,8922;4,3968;4,8497;-0,2248;0,4569;0,7086;
9,950158;-0,2922;1,0544;1,2704;-1,8922;4,3968;4,8497;1,5418;0,4716;1,3292;
9,958552;0,2814;1,5284;0,7466;-1,8922;4,3968;4,8497;1,5418;0,4716;1,3292;
9,968917;0,2814;1,5284;0,7466;-0,1584;5,2800;3,7620;1,5418;0,4716;1,3292;
9,979390;0,2814;1,5284;0,7466;0,8267;6,8412;2,3666;1,5418;0,4716;1,3292;
9,996205;0,2814;1,5284;0,7466;2,4406;9,4624;1,3288;1,5418;0,4716;1,3292;
10,001357;0,2814;1,5284;0,7466;2,4406;9,4624;1,3288;2,2834;-0,4154;0,5705;
10,016328;0,2814;1,5284;0,7466;6,5785;8,9821;2,2361;2,2834;-0,4154;0,5705;
10,021119;1,0837;1,6388;0,7730;6,5785;8,9821;2,2361;2,2834;-0,4154;0,5705;
10,036494;1,0837;1,6388;0,7730;8,0039;7,9140;4,0978;2,2834;-0,4154;0,5705;
10,056390;1,0837;1,6388;0,7730;7,6567;5,8113;2,2957;2,2834;-0,4154;0,5705;
10,066695;1,0837;1,6388;0,7730;7,6567;5,8113;2,2957;2,6328;-0,3861;-0,6451;
10,076601;1,0837;1,6388;0,7730;7,3117;3,2507;1,6551;2,6328;-0,3861;-0,6451;
10,086269;0,8912;0,9108;0,2492;7,3117;3,2507;1,6551;2,6328;-0,3861;-0,6451;
10,096570;0,8912;0,9108;0,2492;6,5992;0,5527;1,2713;2,6328;-0,3861;-0,6451;
10,116727;0,8912;0,9108;0,2492;5,4675;-0,9962;-0,7383;2,6328;-0,3861;-0,6451;
10,131975;0,8912;0,9108;0,2492;5,4675;-0,9962;-0,7383;1,3720;-0,6573;-1,1154;
10,136934;0,8912;0,9108;0,2492;5,4897;-2,2880;-1,5306;1,3720;-0,6573;-1,1154;
10,153837;0,7300;0,5257;0,0342;5,4897;-2,2880;-1,5306;1,3720;-0,6573;-1,1154;
10,160299;0,7300;0,5257;0,0342;5,2212;-3,1541;-1,0662;1,3720;-0,6573;-1,1154;
10,176501;0,7300;0,5257;0,0342;4,0629;-4,5083;-0,3324;1,3720;-0,6573;-1,1154;
10,196334;0,7300;0,5257;0,0342;3,0457;-5,6547;-0,3349;1,3720;-0,6573;-1,1154;
10,199382;0,7300;0,5257;0,0342;3,0457;-5,6547;-0,3349;1,6457;-1,8216;-0,7269;
10,216387;0,6958;0,3626;-0,2795;3,0457;-5,6547;-0,3349;1,6457;-1,8216;-0,7269;
10,219404;0,6958;0,3626;-0,2795;3,1528;-6,1146;-1,0172;1,6457;-1,8216;-0,7269;
10,236508;0,6958;0,3626;-0,2795;3,7702;-5,6549;-2,1349;1,6457;-1,8216;-0,7269;
10,257951;0,6958;0,3626;-0,2795;2,9091;-5,6903;-1,8138;1,6457;-1,8216;-0,7269;
10,266109;0,6958;0,3626;-0,2795;2,9091;-5,6903;-1,8138;0,8393;-2,0024;-0,6720;
10,276601;0,6958;0,3626;-0,2795;1,7251;-5,4959;0,0883;0,8393;-2,0024;-0,6720;
10,281363;0,3909;0,3948;-0,1818;1,7251;-5,4959;0,0883;0,8393;-2,0024;-0,6720;
10,296799;0,3909;0,3948;-0,1818;1,1700;-5,2789;0,2219;0,8393;-2,0024;-0,6720;
10,316745;0,3909;0,3948;-0,1818;0,7605;-5,2148;-0,6061;0,8393;-2,0024;-0,6720;
10,327529;0,3909;0,3948;-0,1818;0,7605;-5,2148;-0,6061;0,5412;-2,4997;-0,5498;
10,339957;0,3909;0,3948;-0,1818;0,5889;-4,9139;-0,4967;0,5412;-2,4997;-0,5498;
10,350257;0,1573;0,3723;-0,2296;0,5889;-4,9139;-0,4967;0,5412;-2,4997;-0,5498;
10,357687;0,1573;0,3723;-0,2296;-0,7337;-5,0752;0,4708;0,5412;-2,4997;-0,5498;
10,377436;0,1573;0,3723;-0,2296;-0,6067;-5,1337;0,5922;0,5412;-2,4997;-0,5498;
10,394998;0,1573;0,3723;-0,2296;-0,6067;-5,1337;0,5922;-0,1332;-2,1661;-0,3225;
10,403353;0,1573;0,3723;-0,2296;-0,4496;-4,5132;0,4004;-0,1332;-2,1661;-0,3225;
10,411133;0,1104;0,4231;-0,1329;-0,4496;-4,5132;0,4004;-0,1332;-2,1661;-0,3225;
10,416122;0,1104;0,4231;-0,1329;-0,5270;-4,3889;0,9124;-0,1332;-2,1661;-0,3225;
10,436419;0,1104;0,4231;-0,1329;-0,8641;-4,9307;2,4810;-0,1332;-2,1661;-0,3225;
10,456234;0,1104;0,4231;-0,1329;-1,4095;-4,4798;3,5123;-0,1332;-2,1661;-0,3225;
10,460323;0,1104;0,4231;-0,1329;-1,4095;-4,4798;3,5123;-0,2639;-1,6432;-0,3042;
10,476468;-0,1612;0,3997;-0,0772;-1,4095;-4,4798;3,5123;-0,2639;-1,6432;-0,3042;
10,479866;-0,1612;0,3997;-0,0772;-1,9817;-4,6986;2,9085;-0,2639;-1,6432;-0,3042;
10,496340;-0,1612;0,3997;-0,0772;-2,5654;-5,1750;2,5318;-0,2639;-1,6432;-0,3042;
10,516361;-0,1612;0,3997;-0,0772;-2,4949;-5,5109;2,5577;-0,2639;-1,6432;-0,3042;
10,521701;-0,1612;0,3997;-0,0772;-2,4949;-5,5109;2,5577;-0,8479;-1,0751;-0,0293;
10,536595;-0,1612;0,3997;-0,0772;-2,9892;-5,5110;3,2570;-0,8479;-1,0751;-0,0293;
10,542823;-0,3020;0,4515;0,0186;-2,9892;-5,5110;3,2570;-0,8479;-1,0751;-0,0293;
10,556812;-0,3020;0,4515;0,0186;-2,7886;-4,8917;2,9201;-0,8479;-1,0751;-0,0293;
10,576865;-0,3020;0,4515;0,0186;-2,8613;-5,2422;2,9808;-0,8479;-1,0751;-0,0293;
10,587245;-0,3020;0,4515;0,0186;-2,8613;-5,2422;2,9808;-1,2339;-0,6194;0,2028;
10,596914;-0,3020;0,4515;0,0186;-2,8243;-5,5514;3,8903;-1,2339;-0,6194;0,2028;
10,607958;-0,5639;0,4456;0,3244;-2,8243;-5,5514;3,8903;-1,2339;-0,6194;0,2028;
10,619576;-0,5639;0,4456;0,3244;-4,1069;-5,3015;4,5557;-1,2339;-0,6194;0,2028;
10,637527;-0,5639;0,4456;0,3244;-4,5178;-5,0923;4,1137;-1,2339;-0,6194;0,2028;
10,655023;-0,5639;0,4456;0,3244;-4,5178;-5,0923;4,1137;-1,8021;0,1063;0,7746;
10,664977;-0,5639;0,4456;0,3244;-3,9690;-4,6254;2,7158;-1,8021;0,1063;0,7746;
10,672810;-0,5306;0,6557;0,4476;-3,9690;-4,6254;2,7158;-1,8021;0,1063;0,7746;
10,682373;-0,5306;0,6557;0,4476;-3,4210;-3,4374;2,6428;-1,8021;0,1063;0,7746;
10,696294;-0,5306;0,6557;0,4476;-3,9285;-3,0994;4,5829;-1,8021;0,1063;0,7746;
10,716305;-0,5306;0,6557;0,4476;-3,4032;-1,9027;3,7721;-1,8021;0,1063;0,7746;
10,719501;-0,5306;0,6557;0,4476;-3,4032;-1,9027;3,7721;-1,9193;0,5498;1,2242;
10,736401;-0,2101;1,0017;0,5883;-3,4032;-1,9027;3,7721;-1,9193;0,5498;1,2242;
10,739255;-0,2101;1,0017;0,5883;-2,0399;-0,7676;3,1243;-1,9193;0,5498;1,2242;
10,756251;-0,2101;1,0017;0,5883;-0,9496;0,3129;4,0164;-1,9193;0,5498;1,2242;
10,776654;-0,2101;1,0017;0,5883;-0,8224;0,9542;4,1274;-1,9193;0,5498;1,2242;
10,783184;-0,2101;1,0017;0,5883;-0,8224;0,9542;4,1274;-2,4264;1,5382;0,9823;
10,796371;-0,2101;1,0017;0,5883;-0,5676;1,5105;3,0724;-2,4264;1,5382;0,9823;
10,802245;-0,1593;1,1414;0,7974;-0,5676;1,5105;3,0724;-2,4264;1,5382;0,9823;
10,817357;-0,1593;1,1414;0,7974;-0,9473;1,9574;4,3693;-2,4264;1,5382;0,9823;
10,837552;-0,1593;1,1414;0,7974;-0,0583;2,4867;5,1044;-2,4264;1,5382;0,9823;
10,847369;-0,1593;1,1414;0,7974;-0,0583;2,4867;5,1044;-1,9096;1,3256;1,0299;
10,857437;-0,1593;1,1414;0,7974;0,5036;3,5704;4,3411;-1,9096;1,3256;1,0299;
10,869708;0,0127;1,2352;1,1404;0,5036;3,5704;4,3411;-1,9096;1,3256;1,0299;
10,878089;0,0127;1,2352;1,1404;0,3603;3,7143;5,4130;-1,9096;1,3256;1,0299;
10,898231;0,0127;1,2352;1,1404;1,4571;3,6310;6,6691;-1,9096;1,3256;1,0299;
10,911321;0,0127;1,2352;1,1404;1,4571;3,6310;6,6691;-0,9432;1,6286;1,0641;
10,916361;0,0127;1,2352;1,1404;2,6060;3,9536;4,5305;-0,9432;1,6286;1,0641;
10,931521;0,1016;1,1023;0,8512;2,6060;3,9536;4,5305;-0,9432;1,6286;1,0641;
10,936426;0,1016;1,1023;0,8512;2,1566;3,2398;2,4135;-0,9432;1,6286;1,0641;
10,956285;0,1016;1,1023;0,8512;0,9726;2,7319;3,4657;-0,9432;1,6286;1,0641;
10,976599;0,1016;1,1023;0,8512;3,6643;3,7431;4,3423;-0,9432;1,6286;1,0641;
10,980665;0,1016;1,1023;0,8512;3,6643;3,7431;4,3423;0,2126;1,2987;1,3036;
10,996270;0,5687;1,2411;0,4573;3,6643;3,7431;4,3423;0,2126;1,2987;1,3036;
10,999643;0,5687;1,2411;0,4573;4,9518;4,2367;2,5207;0,2126;1,2987;1,3036;
11,016262;0,5687;1,2411;0,4573;5,1852;4,2422;-1,1330;0,2126;1,2987;1,3036;
11,036633;0,5687;1,2411;0,4573;3,4809;3,0613;-0,3921;0,2126;1,2987;1,3036;
11,042247;0,5687;1,2411;0,4573;3,4809;3,0613;-0,3921;-0,2602;1,5589;0,7978;
11,056667;0,5687;1,2411;0,4573;4,3212;2,9004;2,1981;-0,2602;1,5589;0,7978;
11,061715;0,4740;0,9841;0,7134;4,3212;2,9004;2,1981;-0,2602;1,5589;0,7978;
11,076826;0,4740;0,9841;0,7134;4,1264;2,0231;1,6624;-0,2602;1,5589;0,7978;
11,099806;0,4740;0,9841;0,7134;3,6147;1,2486;0,6524;-0,2602;1,5589;0,7978;
11,111507;0,4740;0,9841;0,7134;3,6147;1,2486;0,6524;0,6133;0,7379;0,7526;
11,117943;0,4740;0,9841;0,7134;5,1191;1,7362;0,4211;0,6133;0,7379;0,7526;
11,126199;0,7212;0,9108;0,3860;5,1191;1,7362;0,4211;0,6133;0,7379;0,7526;
11,136443;0,7212;0,9108;0,3860;5,9532;1,2994;-0,7610;0,6133;0,7379;0,7526;
11,156509;0,7212;0,9108;0,3860;5,2111;0,8761;-2,5256;0,6133;0,7379;0,7526;
11,171504;0,7212;0,9108;0,3860;5,2111;0,8761;-2,5256;0,2431;0,2553;0,2724;
11,176124;0,7212;0,9108;0,3860;3,9161;0,3380;-2,9684;0,2431;0,2553;0,2724;
11,191335;0,4564;0,7476;0,4046;3,9161;0,3380;-2,9684;0,2431;0,2553;0,2724;
11,196250;0,4564;0,7476;0,4046;3,0306;-0,3368;-1,2665;0,2431;0,2553;0,2724;
11,216287;0,4564;0,7476;0,4046;2,4302;-0,7080;-1,3288;0,2431;0,2553;0,2724;
11,236949;0,4564;0,7476;0,4046;2,2402;-0,4020;-1,8949;0,2431;0,2553;0,2724;
11,245109;0,4564;0,7476;0,4046;2,2402;-0,4020;-1,8949;0,0318;-0,1332;0,0269;
11,256959;0,3674;0,7466;0,4446;2,2402;-0,4020;-1,8949;0,0318;-0,1332;0,0269;
11,261985;0,3674;0,7466;0,4446;2,0931;-0,5938;-1,2356;0,0318;-0,1332;0,0269;
11,278773;0,3674;0,7466;0,4446;1,3619;-0,7841;-0,5196;0,0318;-0,1332;0,0269;
11,298410;0,3674;0,7466;0,4446;0,5053;-0,9413;-0,2343;0,0318;-0,1332;0,0269;
11,308815;0,3674;0,7466;0,4446;0,5053;-0,9413;-0,2343;0,0012;-0,3519;-0,0953;
11,319149;0,3674;0,7466;0,4446;0,0466;-0,7057;0,3258;0,0012;-0,3519;-0,0953;
11,330258;0,2179;0,7378;0,5424;0,0466;-0,7057;0,3258;0,0012;-0,3519;-0,0953;
11,338938;0,2179;0,7378;0,5424;-0,2142;-0,8818;0,5480;0,0012;-0,3519;-0,0953;
11,356541;0,2179;0,7378;0,5424;-0,1050;-0,4247;-0,1389;0,0012;-0,3519;-0,0953;
11,366624;0,2179;0,7378;0,5424;-0,1050;-0,4247;-0,1389;-0,2712;-0,0452;-0,1662;
11,376217;0,2179;0,7378;0,5424;-0,6123;-0,4454;0,0666;-0,2712;-0,0452;-0,1662;
11,386223;0,1007;0,7671;0,5863;-0,6123;-0,4454;0,0666;-0,2712;-0,0452;-0,1662;
11,396283;0,1007;0,7671;0,5863;-1,1632;-0,6497;0,5150;-0,2712;-0,0452;-0,1662;
11,416249;0,1007;0,7671;0,5863;-0,9220;-0,2180;0,5895;-0,2712;-0,0452;-0,1662;
11,431399;0,1007;0,7671;0,5863;-0,9220;-0,2180;0,5895;-0,0049;-0,0342;-0,0061;
11,436257;0,1007;0,7671;0,5863;-0,8127;-0,0861;0,7637;-0,0049;-0,0342;-0,0061;
11,451556;0,1300;0,8150;0,5971;-0,8127;-0,0861;0,7637;-0,0049;-0,0342;-0,0061;
11,456341;0,1300;0,8150;0,5971;-0,8118;-0,1440;1,0861;-0,0049;-0,0342;-0,0061;
11,476977;0,1300;0,8150;0,5971;-0,7491;0,0862;0,4854;-0,0049;-0,0342;-0,0061;
11,497026;0,1300;0,8150;0,5971;-0,6037;0,1533;-0,1150;-0,0049;-0,0342;-0,0061;
11,503151;0,1300;0,8150;0,5971;-0,6037;0,1533;-0,1150;-0,1344;0,0171;-0,0330;
11,517929;0,1329;0,8306;0,6186;-0,6037;0,1533;-0,1150;-0,1344;0,0171;-0,0330;
11,524334;0,1329;0,8306;0,6186;-0,1829;0,3204;-0,0215;-0,1344;0,0171;-0,0330;
11,537965;0,1329;0,8306;0,6186;-0,7160;0,1526;0,9092;-0,1344;0,0171;-0,0330;
11,562479;0,1329;0,8306;0,6186;-0,7863;-0,1474;0,9807;-0,1344;0,0171;-0,0330;
11,575027;0,1329;0,8306;0,6186;-0,7863;-0,1474;0,9807;0,1674;-0,0635;0,1124;
11,579936;0,1329;0,8306;0,6186;-0,4430;-0,0005;0,3770;0,1674;-0,0635;0,1124;
11,584041;0,1837;0,8433;0,4896;-0,4430;-0,0005;0,3770;0,1674;-0,0635;0,1124;
11,597480;0,1837;0,8433;0,4896;-0,1893;0,2498;-0,2626;0,1674;-0,0635;0,1124;
11,617505;0,1837;0,8433;0,4896;0,0536;0,2269;-0,4596;0,1674;-0,0635;0,1124;
11,628406;0,1837;0,8433;0,4896;0,0536;0,2269;-0,4596;-0,2773;0,2162;-0,0391;
11,637782;0,1837;0,8433;0,4896;0,4050;0,2726;-0,1437;-0,2773;0,2162;-0,0391;
11,648756;0,2062;0,8248;0,6401;0,4050;0,2726;-0,1437;-0,2773;0,2162;-0,0391;
11,657743;0,2062;0,8248;0,6401;0,2276;0,1351;0,6719;-0,2773;0,2162;-0,0391;
11,676405;0,2062;0,8248;0,6401;0,0836;0,1478;1,2226;-0,2773;0,2162;-0,0391;
11,691487;0,2062;0,8248;0,6401;0,0836;0,1478;1,2226;0,0293;-0,0880;-0,0574;
11,696586;0,2062;0,8248;0,6401;-0,0282;0,1799;0,5239;0,0293;-0,0880;-0,0574;
11,711059;0,2052;0,8043;0,5629;-0,0282;0,1799;0,5239;0,0293;-0,0880;-0,0574;
11,715955;0,2052;0,8043;0,5629;-0,0387;-0,0375;-0,0377;0,0293;-0,0880;-0,0574;
11,736209;0,2052;0,8043;0,5629;-0,0340;-0,1304;0,4186;0,0293;-0,0880;-0,0574;
11,756037;0,2052;0,8043;0,5629;-0,2937;-0,2228;0,5646;0,0293;-0,0880;-0,0574;
11,759437;0,2052;0,8043;0,5629;-0,2937;-0,2228;0,5646;0,1087;-0,0770;0,0403;
11,775996;0,2169;0,7955;0,5600;-0,2937;-0,2228;0,5646;0,1087;-0,0770;0,0403;
11,777954;0,2169;0,7955;0,5600;-0,2690;-0,1962;0,6161;0,1087;-0,0770;0,0403;
11,796056;0,2169;0,7955;0,5600;0,1746;-0,1426;0,2170;0,1087;-0,0770;0,0403;
11,816220;0,2169;0,7955;0,5600;0,2285;-0,0139;-0,0732;0,1087;-0,0770;0,0403;
11,821443;0,2169;0,7955;0,5600;0,2285;-0,0139;-0,0732;-0,0257;0,1100;0,0061;
11,836499;0,2169;0,7955;0,5600;-0,0847;-0,1047;0,0542;-0,0257;0,1100;0,0061;
11,842824;0,1798;0,7994;0,5521;-0,0847;-0,1047;0,0542;-0,0257;0,1100;0,0061;
11,856255;0,1798;0,7994;0,5521;-0,1032;-0,1670;0,1730;-0,0257;0,1100;0,0061;
11,876495;0,1798;0,7994;0,5521;-0,2978;-0,1331;0,0507;-0,0257;0,1100;0,0061;
11,887449;0,1798;0,7994;0,5521;-0,2978;-0,1331;0,0507;0,0098;0,0574;0,0110;
11,896620;0,1798;0,7994;0,5521;0,1323;-0,0436;0,1461;0,0098;0,0574;0,0110;
11,906545;0,1769;0,8091;0,5267;0,1323;-0,0436;0,1461;0,0098;0,0574;0,0110;
11,916973;0,1769;0,8091;0,5267;-0,0909;-0,0015;-0,0892;0,0098;0,0574;0,0110;
11,936868;0,1769;0,8091;0,5267;-0,1288;-0,0422;0,1773;0,0098;0,0574;0,0110;
11,957194;0,1769;0,8091;0,5267;-0,1288;-0,0422;0,1773;0,0318;-0,0538;0,0440;
11,967931;0,1769;0,8091;0,5267;-0,1235;-0,0032;0,2097;0,0318;-0,0538;0,0440;
11,974386;0,2345;0,8258;0,5433;-0,1235;-0,0032;0,2097;0,0318;-0,0538;0,0440;
11,977185;0,2345;0,8258;0,5433;-0,0368;-0,0805;0,0898;0,0318;-0,0538;0,0440;
11,997734;0,2345;0,8258;0,5433;0,3084;0,1489;0,1038;0,0318;-0,0538;0,0440;
12,018426;0,2345;0,8258;0,5433;-0,1636;-0,0979;-0,0044;0,0318;-0,0538;0,0440;
12,021609;0,2345;0,8258;0,5433;-0,1636;-0,0979;-0,0044;-0,0330;-0,0110;0,0024;
12,036398;0,2091;0,8072;0,5502;-0,1636;-0,0979;-0,0044;-0,0330;-0,0110;0,0024;
12,039302;0,2091;0,8072;0,5502;-0,1990;-0,0487;0,1088;-0,0330;-0,0110;0,0024;
12,056268;0,2091;0,8072;0,5502;0,1121;-0,0479;0,1478;-0,0330;-0,0110;0,0024;
12,076434;0,2091;0,8072;0,5502;0,1915;0,1210;0,3484;-0,0330;-0,0110;0,0024;
12,081951;0,2091;0,8072;0,5502;0,1915;0,1210;0,3484;-0,0061;0,0428;-0,0208;
12,096708;0,2091;0,8072;0,5502;-0,2354;-0,0477;0,3563;-0,0061;0,0428;-0,0208;
12,103681;0,1544;0,7945;0,5648;-0,2354;-0,0477;0,3563;-0,0061;0,0428;-0,0208;
12,117281;0,1544;0,7945;0,5648;-0,4027;-0,1512;0,3013;-0,0061;0,0428;-0,0208;
12,136451;0,1544;0,7945;0,5648;-0,2231;-0,0595;0,0583;-0,0061;0,0428;-0,0208;
12,146335;0,1544;0,7945;0,5648;-0,2231;-0,0595;0,0583;-0,0159;0,0098;0,0171;
12,156318;0,1544;0,7945;0,5648;-0,0570;0,0705;-0,0447;-0,0159;0,0098;0,0171;
12,166697;0,2033;0,8082;0,5619;-0,0570;0,0705;-0,0447;-0,0159;0,0098;0,0171;
12,176270;0,2033;0,8082;0,5619;0,2360;0,0575;0,2777;-0,0159;0,0098;0,0171;
12,196857;0,2033;0,8082;0,5619;-0,1917;-0,0558;0,2677;-0,0159;0,0098;0,0171;
12,211920;0,2033;0,8082;0,5619;-0,1917;-0,0558;0,2677;0,1344;-0,1112;-0,0012;
12,217370;0,2033;0,8082;0,5619;0,1796;0,1544;0,4739;0,1344;-0,1112;-0,0012;
12,234341;0,1954;0,8150;0,5365;0,1796;0,1544;0,4739;0,1344;-0,1112;-0,0012;
12,238189;0,1954;0,8150;0,5365;0,0463;0,1110;0,3302;0,1344;-0,1112;-0,0012;
12,258889;0,1954;0,8150;0,5365;0,1200;0,0438;-0,0981;0,1344;-0,1112;-0,0012;
12,279235;0,1954;0,8150;0,5365;0,2046;0,0528;-0,2635;0,1344;-0,1112;-0,0012;
12,285069;0,1954;0,8150;0,5365;0,2046;0,0528;-0,2635;-0,0379;0,0122;-0,0318;
12,298551;0,1808;0,8003;0,5834;0,2046;0,0528;-0,2635;-0,0379;0,0122;-0,0318;
12,301032;0,1808;0,8003;0,5834;0,0737;0,0698;0,0728;-0,0379;0,0122;-0,0318;
12,316219;0,1808;0,8003;0,5834;-0,1163;-0,0860;0,4185;-0,0379;0,0122;-0,0318;
12,336499;0,1808;0,8003;0,5834;-0,0844;-0,1825;0,1589;-0,0379;0,0122;-0,0318;
12,341273;0,1808;0,8003;0,5834;-0,0844;-0,1825;0,1589;-0,0452;0,0721;-0,0086;
12,356277;0,1808;0,8003;0,5834;-0,0564;-0,0336;-0,0737;-0,0452;0,0721;-0,0086;
12,361060;0,1749;0,7945;0,5805;-0,0564;-0,0336;-0,0737;-0,0452;0,0721;-0,0086;
12,376466;0,1749;0,7945;0,5805;-0,1278;-0,1283;0,3011;-0,0452;0,0721;-0,0086;
12,396561;0,1749;0,7945;0,5805;-0,1879;-0,1469;0,4206;-0,0452;0,0721;-0,0086;
12,406747;0,1749;0,7945;0,5805;-0,1879;-0,1469;0,4206;0,0318;-0,0220;0,0342;
12,417055;0,1749;0,7945;0,5805;-0,1511;-0,1379;-0,0689;0,0318;-0,0220;0,0342;
12,426690;0,2033;0,8140;0,5218;-0,1511;-0,1379;-0,0689;0,0318;-0,0220;0,0342;
12,436858;0,2033;0,8140;0,5218;0,0208;0,0416;-0,2548;0,0318;-0,0220;0,0342;
12,457645;0,2033;0,8140;0,5218;0,0399;-0,0257;-0,0211;0,0318;-0,0220;0,0342;
12,472852;0,2033;0,8140;0,5218;0,0399;-0,0257;-0,0211;0,0122;-0,0342;0,0220;
12,481882;0,2033;0,8140;0,5218;-0,0386;-0,1149;0,1925;0,0122;-0,0342;0,0220;
12,492600;0,1945;0,8082;0,5609;-0,0386;-0,1149;0,1925;0,0122;-0,0342;0,0220;
12,501011;0,1945;0,8082;0,5609;-0,1593;-0,1153;0,2039;0,0122;-0,0342;0,0220;
12,517304;0,1945;0,8082;0,5609;-0,0085;0,0560;0,1697;0,0122;-0,0342;0,0220;
12,537421;0,1945;0,8082;0,5609;0,1532;0,0844;0,2612;0,0122;-0,0342;0,0220;
12,545646;0,1945;0,8082;0,5609;0,1532;0,0844;0,2612;0,0195;0,0208;-0,0037;
12,556404;0,1818;0,8101;0,5179;0,1532;0,0844;0,2612;0,0195;0,0208;-0,0037;
12,558385;0,1818;0,8101;0,5179;0,1305;0,1198;0,0362;0,0195;0,0208;-0,0037;
12,576292;0,1818;0,8101;0,5179;-0,1319;0,0097;-0,2161;0,0195;0,0208;-0,0037;
12,596405;0,1818;0,8101;0,5179;0,0805;0,0499;0,1905;0,0195;0,0208;-0,0037;
12,601674;0,1818;0,8101;0,5179;0,0805;0,0499;0,1905;-0,0244;0,0195;-0,0183;
12,616205;0,1818;0,8101;0,5179;0,0324;0,0416;0,0604;-0,0244;0,0195;-0,0183;
12,621201;0,1906;0,8101;0,5394;0,0324;0,0416;0,0604;-0,0244;0,0195;-0,0183;
12,636454;0,1906;0,8101;0,5394;0,0323;0,0491;-0,0732;-0,0244;0,0195;-0,0183;
12,656448;0,1906;0,8101;0,5394;-0,2732;-0,1015;0,1792;-0,0244;0,0195;-0,0183;
12,667027;0,1906;0,8101;0,5394;-0,2732;-0,1015;0,1792;0,0513;-0,0574;0,0391;
12,678881;0,1906;0,8101;0,5394;-0,2010;-0,0584;0,2817;0,0513;-0,0574;0,0391;
12,686471;0,2160;0,8189;0,5512;-0,2010;-0,0584;0,2817;0,0513;-0,0574;0,0391;
12,696992;0,2160;0,8189;0,5512;-0,2010;-0,1129;-0,0009;0,0513;-0,0574;0,0391;
12,718182;0,2160;0,8189;0,5512;0,3330;0,2005;0,1002;0,0513;-0,0574;0,0391;
12,736087;0,2160;0,8189;0,5512;0,3330;0,2005;0,1002;0,0037;-0,0232;0,0232;
12,742237;0,2160;0,8189;0,5512;-0,0768;0,0342;-0,0383;0,0037;-0,0232;0,0232;
12,752478;0,2101;0,8179;0,5463;-0,0768;0,0342;-0,0383;0,0037;-0,0232;0,0232;
12,760371;0,2101;0,8179;0,5463;0,0379;0,0569;0,0659;0,0037;-0,0232;0,0232;
12,777532;0,2101;0,8179;0,5463;0,0624;0,0970;-0,0414;0,0037;-0,0232;0,0232;
12,797335;0,2101;0,8179;0,5463;0,0593;0,0602;0,0247;0,0037;-0,0232;0,0232;
12,805932;0,2101;0,8179;0,5463;0,0593;0,0602;0,0247;0,0073;0,0061;0,0061;
12,817221;0,1925;0,7964;0,5482;0,0593;0,0602;0,0247;0,0073;0,0061;0,0061;
12,825382;0,1925;0,7964;0,5482;-0,1076;-0,0234;0,2828;0,0073;0,0061;0,0061;
12,837464;0,1925;0,7964;0,5482;-0,0564;-0,0889;0,0323;0,0073;0,0061;0,0061;
12,857357;0,1925;0,7964;0,5482;-0,0988;-0,0117;0,0548;0,0073;0,0061;0,0061;
12,866520;0,1925;0,7964;0,5482;-0,0988;-0,0117;0,0548;0,0330;-0,0098;0,0098;
12,877977;0,1925;0,7964;0,5482;0,0223;0,0875;0,1338;0,0330;-0,0098;0,0098;
12,883033;0,1827;0,8023;0,5678;0,0223;0,0875;0,1338;0,0330;-0,0098;0,0098;
12,896635;0,1827;0,8023;0,5678;-0,1778;-0,0440;0,2395;0,0330;-0,0098;0,0098;
12,916353;0,1827;0,8023;0,5678;-0,1243;-0,0019;0,1551;0,0330;-0,0098;0,0098;
12,926605;0,1827;0,8023;0,5678;-0,1243;-0,0019;0,1551;0,0208;0,0159;0,0110;
12,936401;0,1827;0,8023;0,5678;0,0381;0,1025;0,0244;0,0208;0,0159;0,0110;
12,946193;0,1915;0,8140;0,5130;0,0381;0,1025;0,0244;0,0208;0,0159;0,0110;
12,957381;0,1915;0,8140;0,5130;0,0239;0,1491;-0,1617;0,0208;0,0159;0,0110;
12,976317;0,1915;0,8140;0,5130;-0,2092;-0,0509;-0,2350;0,0208;0,0159;0,0110;
12,991590;0,1915;0,8140;0,5130;-0,2092;-0,0509;-0,2350;0,0220;-0,0379;0,0305;
12,996533;0,1915;0,8140;0,5130;-0,1505;-0,0534;0,1035;0,0220;-0,0379;0,0305;
13,011726;0,2052;0,8091;0,5336;-0,1505;-0,0534;0,1035;0,0220;-0,0379;0,0305;
13,016578;0,2052;0,8091;0,5336;-0,0791;-0,0758;0,0317;0,0220;-0,0379;0,0305;
13,036848;0,2052;0,8091;0,5336;0,0393;0,0397;-0,0402;0,0220;-0,0379;0,0305;
13,059697;0,2052;0,8091;0,5336;-0,0448;0,0063;0,2242;0,0220;-0,0379;0,0305;
13,067427;0,2052;0,8091;0,5336;-0,0448;0,0063;0,2242;-0,0281;0,0171;0,0220;
13,077410;0,1837;0,8033;0,5775;-0,0448;0,0063;0,2242;-0,0281;0,0171;0,0220;
13,086705;0,1837;0,8033;0,5775;-0,0797;0,0199;0,1890;-0,0281;0,0171;0,0220;
13,098380;0,1837;0,8033;0,5775;-0,1504;-0,0139;0,3191;-0,0281;0,0171;0,0220;
13,116293;0,1837;0,8033;0,5775;-0,0611;-0,0173;0,0528;-0,0281;0,0171;0,0220;
13,122587;0,1837;0,8033;0,5775;-0,0611;-0,0173;0,0528;-0,0134;0,0195;0,0257;
13,136402;0,1837;0,8033;0,5775;0,0448;0,0273;-0,0344;-0,0134;0,0195;0,0257;
13,141615;0,2140;0,8209;0,5443;0,0448;0,0273;-0,0344;-0,0134;0,0195;0,0257;
13,156306;0,2140;0,8209;0,5443;0,1501;0,1262;0,0277;-0,0134;0,0195;0,0257;
13,176251;0,2140;0,8209;0,5443;-0,2366;0,0776;0,1231;-0,0134;0,0195;0,0257;
13,188487;0,2140;0,8209;0,5443;-0,2366;0,0776;0,1231;0,0562;-0,0171;0,0134;
13,196408;0,2140;0,8209;0,5443;-0,0096;0,0886;0,3220;0,0562;-0,0171;0,0134;
13,206101;0,2081;0,8160;0,5316;-0,0096;0,0886;0,3220;0,0562;-0,0171;0,0134;
13,216197;0,2081;0,8160;0,5316;0,1382;0,0931;0,0193;0,0562;-0,0171;0,0134;
13,236398;0,2081;0,8160;0,5316;0,0085;0,0285;-0,0595;0,0562;-0,0171;0,0134;
13,251445;0,2081;0,8160;0,5316;0,0085;0,0285;-0,0595;0,0452;-0,0538;0,0574;
13,256285;0,2081;0,8160;0,5316;-0,2026;-0,0875;0,0149;0,0452;-0,0538;0,0574;
13,271569;0,2296;0,8052;0,5218;-0,2026;-0,0875;0,0149;0,0452;-0,0538;0,0574;
13,276746;0,2296;0,8052;0,5218;-0,0766;-0,1145;-0,0175;0,0452;-0,0538;0,0574;
13,296887;0,2296;0,8052;0,5218;0,2990;0,0579;-0,2505;0,0452;-0,0538;0,0574;
13,317147;0,2296;0,8052;0,5218;0,0160;-0,0436;-0,3550;0,0452;-0,0538;0,0574;
13,322852;0,2296;0,8052;0,5218;0,0160;-0,0436;-0,3550;-0,0538;-0,0110;0,0232;
13,338508;0,1798;0,7740;0,5844;0,0160;-0,0436;-0,3550;-0,0538;-0,0110;0,0232;
13,343333;0,1798;0,7740;0,5844;-0,2114;-0,1328;0,1387;-0,0538;-0,0110;0,0232;
13,357858;0,1798;0,7740;0,5844;-0,2312;-0,2816;0,3687;-0,0538;-0,0110;0,0232;
13,377211;0,1798;0,7740;0,5844;-0,2966;-0,2144;0,1317;-0,0538;-0,0110;0,0232;
13,387018;0,1798;0,7740;0,5844;-0,2966;-0,2144;0,1317;0,0171;-0,0452;0,1173;
13,397529;0,1798;0,7740;0,5844;-0,3720;-0,1625;-0,1630;0,0171;-0,0452;0,1173;
13,406719;0,1261;0,7896;0,5287;-0,3720;-0,1625;-0,1630;0,0171;-0,0452;0,1173;
13,422737;0,1261;0,7896;0,5287;-0,6807;-0,1109;-0,1478;0,0171;-0,0452;0,1173;
13,439215;0,1261;0,7896;0,5287;-1,4097;-0,1450;0,0618;0,0171;-0,0452;0,1173;
13,448490;0,1261;0,7896;0,5287;-1,4097;-0,1450;0,0618;0,0208;0,0806;0,4447;
13,457690;0,1261;0,7896;0,5287;-2,3189;0,0490;1,2635;0,0208;0,0806;0,4447;
13,470667;-0,2296;0,9039;0,7075;-2,3189;0,0490;1,2635;0,0208;0,0806;0,4447;
13,478289;-0,2296;0,9039;0,7075;-3,3247;0,5783;1,5220;0,0208;0,0806;0,4447;
13,496771;-0,2296;0,9039;0,7075;-4,7068;1,4705;1,6449;0,0208;0,0806;0,4447;
13,511598;-0,2296;0,9039;0,7075;-4,7068;1,4705;1,6449;-0,1588;-0,0953;1,1167;
13,517359;-0,2296;0,9039;0,7075;-4,5893;2,1869;2,1176;-0,1588;-0,0953;1,1167;
13,531187;-0,1407;1,1346;0,8258;-4,5893;2,1869;2,1176;-0,1588;-0,0953;1,1167;
13,536397;-0,1407;1,1346;0,8258;-3,5239;2,7483;1,9410;-0,1588;-0,0953;1,1167;
13,556288;-0,1407;1,1346;0,8258;-3,0711;3,8694;2,8503;-0,1588;-0,0953;1,1167;
13,576273;-0,1407;1,1346;0,8258;-0,6595;4,6982;4,1693;-0,1588;-0,0953;1,1167;
13,579340;-0,1407;1,1346;0,8258;-0,6595;4,6982;4,1693;0,9578;-0,9994;1,3720;
13,596403;0,7974;1,3026;1,3877;-0,6595;4,6982;4,1693;0,9578;-0,9994;1,3720;
13,599832;0,7974;1,3026;1,3877;2,0401;4,8923;7,5865;0,9578;-0,9994;1,3720;
13,616231;0,7974;1,3026;1,3877;5,0429;5,2906;8,0273;0,9578;-0,9994;1,3720;
13,636487;0,7974;1,3026;1,3877;6,0779;4,6756;4,1749;0,9578;-0,9994;1,3720;
13,641867;0,7974;1,3026;1,3877;6,0779;4,6756;4,1749;2,4850;-0,0929;-0,0464;
13,656831;0,7974;1,3026;1,3877;5,9933;3,9972;-0,0075;2,4850;-0,0929;-0,0464;
13,661769;0,8267;1,1903;0,5414;5,9933;3,9972;-0,0075;2,4850;-0,0929;-0,0464;
13,676663;0,8267;1,1903;0,5414;5,0402;3,6714;0,8741;2,4850;-0,0929;-0,0464;
13,697519;0,8267;1,1903;0,5414;3,8925;2,3039;0,7282;2,4850;-0,0929;-0,0464;
13,707510;0,8267;1,1903;0,5414;3,8925;2,3039;0,7282;2,6524;-0,3409;-0,2957;
13,718666;0,8267;1,1903;0,5414;3,3604;1,2599;-0,1251;2,6524;-0,3409;-0,2957;
13,727792;0,9352;0,9831;0,1534;3,3604;1,2599;-0,1251;2,6524;-0,3409;-0,2957;
13,739676;0,9352;0,9831;0,1534;5,6280;1,1017;-0,9190;2,6524;-0,3409;-0,2957;
13,756284;0,9352;0,9831;0,1534;4,7056;0,1996;-0,7486;2,6524;-0,3409;-0,2957;
13,771419;0,9352;0,9831;0,1534;4,7056;0,1996;-0,7486;1,7886;-0,2981;-0,8308;
13,776141;0,9352;0,9831;0,1534;3,4163;-1,3715;-1,2514;1,7886;-0,2981;-0,8308;
13,791186;0,5805;0,7417;-0,0450;3,4163;-1,3715;-1,2514;1,7886;-0,2981;-0,8308;
13,797420;0,5805;0,7417;-0,0450;2,8425;-1,6484;-1,4634;1,7886;-0,2981;-0,8308;
13,816373;0,5805;0,7417;-0,0450;2,2601;-1,8969;-1,5506;1,7886;-0,2981;-0,8308;
13,836264;0,5805;0,7417;-0,0450;2,1253;-2,2179;-2,5495;1,7886;-0,2981;-0,8308;
13,842948;0,5805;0,7417;-0,0450;2,1253;-2,2179;-2,5495;1,1020;-0,9163;-0,9578;
13,856590;0,5854;0,6459;-0,2785;2,1253;-2,2179;-2,5495;1,1020;-0,9163;-0,9578;
13,859810;0,5854;0,6459;-0,2785;3,6041;-2,4356;-3,1103;1,1020;-0,9163;-0,9578;
13,876685;0,5854;0,6459;-0,2785;2,3409;-2,7651;-2,2103;1,1020;-0,9163;-0,9578;
13,897988;0,5854;0,6459;-0,2785;1,3908;-2,9041;-0,8438;1,1020;-0,9163;-0,9578;
13,906685;0,5854;0,6459;-0,2785;1,3908;-2,9041;-0,8438;0,5828;-0,8625;-0,5974;
13,917301;0,5854;0,6459;-0,2785;2,2491;-3,1488;-0,1818;0,5828;-0,8625;-0,5974;
13,928513;0,5971;0,6196;-0,1612;2,2491;-3,1488;-0,1818;0,5828;-0,8625;-0,5974;
13,937535;0,5971;0,6196;-0,1612;2,7467;-3,1080;-0,2885;0,5828;-0,8625;-0,5974;
13,956341;0,5971;0,6196;-0,1612;1,9449;-3,1200;-0,9941;0,5828;-0,8625;-0,5974;
13,966565;0,5971;0,6196;-0,1612;1,9449;-3,1200;-0,9941;0,2236;-1,3683;-0,5693;
13,976296;0,5971;0,6196;-0,1612;1,7572;-3,3304;-1,2607;0,2236;-1,3683;-0,5693;
13,986153;0,5228;0,5629;-0,3586;1,7572;-3,3304;-1,2607;0,2236;-1,3683;-0,5693;
13,996415;0,5228;0,5629;-0,3586;1,9688;-3,2476;-1,3409;0,2236;-1,3683;-0,5693;
14,016269;0,5228;0,5629;-0,3586;1,9749;-3,5407;-1,4121;0,2236;-1,3683;-0,5693;
14,031684;0,5228;0,5629;-0,3586;1,9749;-3,5407;-1,4121;-0,3592;-1,7862;-0,9933;
14,036358;0,5228;0,5629;-0,3586;1,3301;-3,2205;0,0391;-0,3592;-1,7862;-0,9933;
14,051370;0,3010;0,5482;-0,0176;1,3301;-3,2205;0,0391;-0,3592;-1,7862;-0,9933;
14,056474;0,3010;0,5482;-0,0176;0,4645;-3,3506;1,6757;-0,3592;-1,7862;-0,9933;
14,076587;0,3010;0,5482;-0,0176;-0,0156;-3,7303;1,8033;-0,3592;-1,7862;-0,9933;
14,096796;0,3010;0,5482;-0,0176;-0,8353;-3,6718;1,1314;-0,3592;-1,7862;-0,9933;
14,104010;0,3010;0,5482;-0,0176;-0,8353;-3,6718;1,1314;-0,3763;-1,6176;-0,6658;
14,117393;0,1945;0,5805;-0,0889;-0,8353;-3,6718;1,1314;-0,3763;-1,6176;-0,6658;
14,123587;0,1945;0,5805;-0,0889;-0,6086;-3,7043;0,8140;-0,3763;-1,6176;-0,6658;
14,137633;0,1945;0,5805;-0,0889;-0,3183;-3,5161;1,3098;-0,3763;-1,6176;-0,6658;
14,157938;0,1945;0,5805;-0,0889;-1,4538;-4,1882;2,0026;-0,3763;-1,6176;-0,6658;
14,166814;0,1945;0,5805;-0,0889;-1,4538;-4,1882;2,0026;-0,5742;-1,2926;-0,5803;
14,180939;0,1945;0,5805;-0,0889;-2,1984;-4,6375;2,5587;-0,5742;-1,2926;-0,5803;
14,190784;-0,0391;0,5404;0,0889;-2,1984;-4,6375;2,5587;-0,5742;-1,2926;-0,5803;
14,198536;-0,0391;0,5404;0,0889;-1,7918;-4,2453;2,4413;-0,5742;-1,2926;-0,5803;
14,216245;-0,0391;0,5404;0,0889;-1,7611;-4,0023;2,4608;-0,5742;-1,2926;-0,5803;
14,226577;-0,0391;0,5404;0,0889;-1,7611;-4,0023;2,4608;-0,5669;-1,0800;-0,5657;
14,236227;-0,0391;0,5404;0,0889;-1,8642;-4,5809;2,2054;-0,5669;-1,0800;-0,5657;
14,246134;-0,3196;0,5297;0,1368;-1,8642;-4,5809;2,2054;-0,5669;-1,0800;-0,5657;
14,256310;-0,3196;0,5297;0,1368;-3,1304;-4,7200;2,2334;-0,5669;-1,0800;-0,5657;
14,276245;-0,3196;0,5297;0,1368;-3,7051;-4,3872;2,1598;-0,5669;-1,0800;-0,5657;
14,291487;-0,3196;0,5297;0,1368;-3,7051;-4,3872;2,1598;-0,7807;-0,6500;-0,0648;
14,296392;-0,3196;0,5297;0,1368;-3,5529;-4,2678;2,2012;-0,7807;-0,6500;-0,0648;
14,311467;-0,3332;0,6157;0,2072;-3,5529;-4,2678;2,2012;-0,7807;-0,6500;-0,0648;
14,316328;-0,3332;0,6157;0,2072;-2,8587;-4,0398;1,8561;-0,7807;-0,6500;-0,0648;
14,336689;-0,3332;0,6157;0,2072;-3,0252;-3,5791;2,0839;-0,7807;-0,6500;-0,0648;
14,356999;-0,3332;0,6157;0,2072;-2,2933;-3,8488;1,5120;-0,7807;-0,6500;-0,0648;
14,362122;-0,3332;0,6157;0,2072;-2,2933;-3,8488;1,5120;-0,6451;-0,6390;0,3934;
14,377992;-0,1749;0,7642;0,0909;-2,2933;-3,8488;1,5120;-0,6451;-0,6390;0,3934;
14,385562;-0,1749;0,7642;0,0909;-2,4520;-3,5239;0,7072;-0,6451;-0,6390;0,3934;
14,397732;-0,1749;0,7642;0,0909;-1,0159;-2,1862;0,2455;-0,6451;-0,6390;0,3934;
14,419044;-0,1749;0,7642;0,0909;-1,0146;-3,0981;0,9589;-0,6451;-0,6390;0,3934;
14,431254;-0,1749;0,7642;0,0909;-1,0146;-3,0981;0,9589;-1,1142;-0,7978;0,2077;
14,437517;-0,1749;0,7642;0,0909;-1,4531;-3,9682;1,0267;-1,1142;-0,7978;0,2077;
14,443916;-0,3567;0,7173;0,2863;-1,4531;-3,9682;1,0267;-1,1142;-0,7978;0,2077;
14,456434;-0,3567;0,7173;0,2863;-2,3880;-2,8261;1,4953;-1,1142;-0,7978;0,2077;
14,476229;-0,3567;0,7173;0,2863;-2,4595;-2,5859;1,8575;-1,1142;-0,7978;0,2077;
14,486689;-0,3567;0,7173;0,2863;-2,4595;-2,5859;1,8575;-1,3916;-0,3030;0,6842;
14,496452;-0,3567;0,7173;0,2863;-1,8338;-3,0804;2,1817;-1,3916;-0,3030;0,6842;
14,506109;-0,3196;0,8688;0,3948;-1,8338;-3,0804;2,1817;-1,3916;-0,3030;0,6842;
14,516437;-0,3196;0,8688;0,3948;-1,6589;-1,8227;1,3278;-1,3916;-0,3030;0,6842;
14,536391;-0,3196;0,8688;0,3948;-2,8853;-0,5720;2,0422;-1,3916;-0,3030;0,6842;
14,551529;-0,3196;0,8688;0,3948;-2,8853;-0,5720;2,0422;-2,0159;0,6329;0,9139;
14,556531;-0,3196;0,8688;0,3948;-2,8959;-0,4212;3,2539;-2,0159;0,6329;0,9139;
14,573234;-0,2482;0,8727;0,7896;-2,8959;-0,4212;3,2539;-2,0159;0,6329;0,9139;
14,577023;-0,2482;0,8727;0,7896;-1,8567;-0,5775;3,7732;-2,0159;0,6329;0,9139;
14,596611;-0,2482;0,8727;0,7896;-1,8963;0,0766;3,8133;-2,0159;0,6329;0,9139;
14,616464;-0,2482;0,8727;0,7896;-2,6969;0,6207;4,5033;-2,0159;0,6329;0,9139;
14,620161;-0,2482;0,8727;0,7896;-2,6969;0,6207;4,5033;-1,5186;0,7526;1,4856;
14,636187;0,0156;1,0398;0,8942;-2,6969;0,6207;4,5033;-1,5186;0,7526;1,4856;
14,639161;0,0156;1,0398;0,8942;-1,8911;0,7329;4,3600;-1,5186;0,7526;1,4856;
14,656596;0,0156;1,0398;0,8942;0,7173;1,9594;3,6275;-1,5186;0,7526;1,4856;
14,676284;0,0156;1,0398;0,8942;0,5758;1,7028;2,9270;-1,5186;0,7526;1,4856;
14,681633;0,0156;1,0398;0,8942;0,5758;1,7028;2,9270;-1,7410;1,5321;1,4368;
14,696811;0,0156;1,0398;0,8942;-0,5340;1,7918;3,8558;-1,7410;1,5321;1,4368;
14,702742;0,0137;1,0505;1,1727;-0,5340;1,7918;3,8558;-1,7410;1,5321;1,4368;
14,716706;0,0137;1,0505;1,1727;0,2365;2,6890;5,3397;-1,7410;1,5321;1,4368;
14,740167;0,0137;1,0505;1,1727;0,8702;2,5108;4,2798;-1,7410;1,5321;1,4368;
14,753267;0,0137;1,0505;1,1727;0,8702;2,5108;4,2798;-0,9798;1,6872;1,8521;
14,758241;0,0137;1,0505;1,1727;0,3321;2,8136;2,9432;-0,9798;1,6872;1,8521;
14,766110;0,3547;1,0837;1,1277;0,3321;2,8136;2,9432;-0,9798;1,6872;1,8521;
14,776281;0,3547;1,0837;1,1277;2,5609;3,4770;4,3837;-0,9798;1,6872;1,8521;
14,796474;0,3547;1,0837;1,1277;4,0577;3,5375;3,8520;-0,9798;1,6872;1,8521;
14,811557;0,3547;1,0837;1,1277;4,0577;3,5375;3,8520;-0,6512;1,9316;1,3757;
14,816152;0,3547;1,0837;1,1277;4,0147;3,3686;2,2436;-0,6512;1,9316;1,3757;
14,831257;0,4740;0,9831;1,1736;4,0147;3,3686;2,2436;-0,6512;1,9316;1,3757;
14,836159;0,4740;0,9831;1,1736;4,1351;3,1741;3,6944;-0,6512;1,9316;1,3757;
14,856471;0,4740;0,9831;1,1736;4,5852;2,6117;4,4620;-0,6512;1,9316;1,3757;
14,876391;0,4740;0,9831;1,1736;4,5635;2,0682;2,3485;-0,6512;1,9316;1,3757;
14,879929;0,4740;0,9831;1,1736;4,5635;2,0682;2,3485;0,5852;1,2462;1,0800;
14,896710;0,5990;0,9225;0,7085;4,5635;2,0682;2,3485;0,5852;1,2462;1,0800;
14,900784;0,5990;0,9225;0,7085;5,7784;2,4635;0,8747;0,5852;1,2462;1,0800;
14,916501;0,5990;0,9225;0,7085;5,1243;2,0417;0,2380;0,5852;1,2462;1,0800;
14,938033;0,5990;0,9225;0,7085;4,5449;1,3624;-1,2606;0,5852;1,2462;1,0800;
14,948365;0,5990;0,9225;0,7085;4,5449;1,3624;-1,2606;0,3005;0,8968;0,6536;
14,960218;0,5990;0,9225;0,7085;4,4182;0,9423;-1,1396;0,3005;0,8968;0,6536;
14,968015;0,5678;0,7955;0,6186;4,4182;0,9423;-1,1396;0,3005;0,8968;0,6536;
14,976305;0,5678;0,7955;0,6186;4,7594;0,7072;-0,2693;0,3005;0,8968;0,6536;
14,996504;0,5678;0,7955;0,6186;4,1569;0,3186;-1,4372;0,3005;0,8968;0,6536;
15,006334;0,5678;0,7955;0,6186;4,1569;0,3186;-1,4372;0,1332;0,3971;0,1784;
15,016384;0,5678;0,7955;0,6186;3,8182;-0,2785;-2,9776;0,1332;0,3971;0,1784;
15,026248;0,4544;0,6811;0,4290;3,8182;-0,2785;-2,9776;0,1332;0,3971;0,1784;
15,036251;0,4544;0,6811;0,4290;3,0386;-0,6283;-2,4063;0,1332;0,3971;0,1784;
15,056568;0,4544;0,6811;0,4290;2,8750;-0,9061;-1,5820;0,1332;0,3971;0,1784;
15,071796;0,4544;0,6811;0,4290;2,8750;-0,9061;-1,5820;-0,0147;-0,1307;0,0330;
15,076458;0,4544;0,6811;0,4290;2,3834;-1,3351;-1,6150;-0,0147;-0,1307;0,0330;
15,091732;0,3225;0,6528;0,5658;2,3834;-1,3351;-1,6150;-0,0147;-0,1307;0,0330;
15,096661;0,3225;0,6528;0,5658;2,0645;-1,1414;-1,1857;-0,0147;-0,1307;0,0330;
15,116704;0,3225;0,6528;0,5658;0,9448;-0,9077;-0,3865;-0,0147;-0,1307;0,0330;
15,137429;0,3225;0,6528;0,5658;0,4790;-0,5320;-0,8570;-0,0147;-0,1307;0,0330;
15,150654;0,3225;0,6528;0,5658;0,4790;-0,5320;-0,8570;-0,4117;-0,1405;-0,1100;
15,158344;0,1691;0,7486;0,6499;0,4790;-0,5320;-0,8570;-0,4117;-0,1405;-0,1100;
15,166747;0,1691;0,7486;0,6499;0,3300;-0,1331;-0,8695;-0,4117;-0,1405;-0,1100;
15,177586;0,1691;0,7486;0,6499;-0,4554;-0,0273;0,3865;-0,4117;-0,1405;-0,1100;
15,197823;0,1691;0,7486;0,6499;-0,9715;-0,0284;1,3333;-0,4117;-0,1405;-0,1100;
15,202270;0,1691;0,7486;0,6499;-0,9715;-0,0284;1,3333;-0,1759;-0,2920;-0,2077;
15,216305;0,1691;0,7486;0,6499;-1,2675;0,1815;1,3270;-0,1759;-0,2920;-0,2077;
15,221140;0,0313;0,7349;0,7407;-1,2675;0,1815;1,3270;-0,1759;-0,2920;-0,2077;
15,236244;0,0313;0,7349;0,7407;-1,5017;0,0271;0,9062;-0,1759;-0,2920;-0,2077;
15,256584;0,0313;0,7349;0,7407;-1,4976;0,0504;1,3632;-0,1759;-0,2920;-0,2077;
15,266359;0,0313;0,7349;0,7407;-1,4976;0,0504;1,3632;-0,1002;0,0782;-0,1332;
15,276199;0,0313;0,7349;0,7407;-1,3812;-0,0194;1,0323;-0,1002;0,0782;-0,1332;
15,286192;0,0039;0,7251;0,6596;-1,3812;-0,0194;1,0323;-0,1002;0,0782;-0,1332;
15,296834;0,0039;0,7251;0,6596;-1,5734;-0,1183;0,1567;-0,1002;0,0782;-0,1332;
15,316610;0,0039;0,7251;0,6596;-1,5909;-0,1305;0,3025;-0,1002;0,0782;-0,1332;
15,331757;0,0039;0,7251;0,6596;-1,5909;-0,1305;0,3025;0,0977;-0,0880;0,0501;
15,336905;0,0039;0,7251;0,6596;-1,5220;-0,2605;0,8735;0,0977;-0,0880;0,0501;
15,352469;0,0567;0,7212;0,6518;-1,5220;-0,2605;0,8735;0,0977;-0,0880;0,0501;
15,360558;0,0567;0,7212;0,6518;-1,0566;-0,0649;0,5565;0,0977;-0,0880;0,0501;
15,378651;0,0567;0,7212;0,6518;-0,8754;0,0163;-0,2178;0,0977;-0,0880;0,0501;
15,399571;0,0567;0,7212;0,6518;-0,4673;-0,0020;-0,2034;0,0977;-0,0880;0,0501;
15,411258;0,0567;0,7212;0,6518;-0,4673;-0,0020;-0,2034;-0,0501;0,1918;0,1063;
15,420869;0,1368;0,7359;0,6547;-0,4673;-0,0020;-0,2034;-0,0501;0,1918;0,1063;
15,426099;0,1368;0,7359;0,6547;-0,2319;0,0629;-0,0474;-0,0501;0,1918;0,1063;
15,436282;0,1368;0,7359;0,6547;-0,0788;0,1315;-0,0901;-0,0501;0,1918;0,1063;
15,456422;0,1368;0,7359;0,6547;0,0593;0,1939;-0,5362;-0,0501;0,1918;0,1063;
15,461806;0,1368;0,7359;0,6547;0,0593;0,1939;-0,5362;-0,0672;0,0195;0,0403;
15,478209;0,1368;0,7359;0,6547;0,0202;0,0163;-0,2968;-0,0672;0,0195;0,0403;
15,481205;0,1661;0,7114;0,6958;0,0202;0,0163;-0,2968;-0,0672;0,0195;0,0403;
15,496420;0,1661;0,7114;0,6958;0,1058;-0,1034;0,2927;-0,0672;0,0195;0,0403;
15,516448;0,1661;0,7114;0,6958;0,4241;0,1856;0,1943;-0,0672;0,0195;0,0403;
15,527515;0,1661;0,7114;0,6958;0,4241;0,1856;0,1943;-0,0501;0,0110;0,0012;
15,536508;0,1661;0,7114;0,6958;0,2068;0,1502;-0,0280;-0,0501;0,0110;0,0012;
15,546540;0,1358;0,7114;0,7036;0,2068;0,1502;-0,0280;-0,0501;0,0110;0,0012;
15,556659;0,1358;0,7114;0,7036;0,0053;-0,0206;0,1603;-0,0501;0,0110;0,0012;
15,576596;0,1358;0,7114;0,7036;0,0019;0,0989;0,3545;-0,0501;0,0110;0,0012;
15,594957;0,1358;0,7114;0,7036;0,0019;0,0989;0,3545;-0,0012;-0,0134;0,0208;
15,598632;0,1358;0,7114;0,7036;0,3207;0,2525;0,0299;-0,0012;-0,0134;0,0208;
15,613040;0,1720;0,7300;0,6919;0,3207;0,2525;0,0299;-0,0012;-0,0134;0,0208;
15,616745;0,1720;0,7300;0,6919;0,1664;0,2354;0,0359;-0,0012;-0,0134;0,0208;
15,637818;0,1720;0,7300;0,6919;0,1404;0,0920;0,1925;-0,0012;-0,0134;0,0208;
15,657632;0,1720;0,7300;0,6919;0,0316;0,0608;-0,0679;-0,0012;-0,0134;0,0208;
15,662871;0,1720;0,7300;0,6919;0,0316;0,0608;-0,0679;0,0159;0,0061;0,0000;
15,677613;0,1446;0,7163;0,6938;0,0316;0,0608;-0,0679;0,0159;0,0061;0,0000;
15,684877;0,1446;0,7163;0,6938;0,0989;0,1922;0,2932;0,0159;0,0061;0,0000;
15,697507;0,1446;0,7163;0,6938;-0,0866;0,0277;0,2123;0,0159;0,0061;0,0000;
15,717777;0,1446;0,7163;0,6938;-0,0097;0,1770;-0,0923;0,0159;0,0061;0,0000;
15,729713;0,1446;0,7163;0,6938;-0,0097;0,1770;-0,0923;-0,0024;0,0220;-0,0122;
15,737603;0,1446;0,7163;0,6938;-0,2688;0,0999;-0,0363;-0,0024;0,0220;-0,0122;
15,745615;0,1163;0,7183;0,6801;-0,2688;0,0999;-0,0363;-0,0024;0,0220;-0,0122;
15,757605;0,1163;0,7183;0,6801;-0,3468;-0,0037;0,1191;-0,0024;0,0220;-0,0122;
15,776252;0,1163;0,7183;0,6801;0,0364;0,1559;-0,1654;-0,0024;0,0220;-0,0122;
15,786534;0,1163;0,7183;0,6801;0,0364;0,1559;-0,1654;-0,0745;0,0831;-0,0391;
15,796344;0,1163;0,7183;0,6801;0,1278;0,1719;-0,4303;-0,0745;0,0831;-0,0391;
15,807732;0,1143;0,7104;0,6782;0,1278;0,1719;-0,4303;-0,0745;0,0831;-0,0391;
15,816317;0,1143;0,7104;0,6782;-0,1817;-0,0248;0,0174;-0,0745;0,0831;-0,0391;
15,836273;0,1143;0,7104;0,6782;-0,3595;-0,0161;0,0782;-0,0745;0,0831;-0,0391;
15,851505;0,1143;0,7104;0,6782;-0,3595;-0,0161;0,0782;0,0232;-0,0122;0,0000;
15,856857;0,1143;0,7104;0,6782;-0,2220;0,1298;-0,0089;0,0232;-0,0122;0,0000;
15,874704;0,1319;0,7222;0,6694;-0,2220;0,1298;-0,0089;0,0232;-0,0122;0,0000;
15,880209;0,1319;0,7222;0,6694;-0,1038;0,0206;-0,1049;0,0232;-0,0122;0,0000;
15,896924;0,1319;0,7222;0,6694;-0,1823;-0,0087;0,0715;0,0232;-0,0122;0,0000;
15,917390;0,1319;0,7222;0,6694;-0,1896;-0,0520;0,2168;0,0232;-0,0122;0,0000;
15,926097;0,1319;0,7222;0,6694;-0,1896;-0,0520;0,2168;0,0134;0,0171;0,0061;
15,937462;0,1407;0,7261;0,6635;-0,1896;-0,0520;0,2168;0,0134;0,0171;0,0061;
15,944190;0,1407;0,7261;0,6635;0,0166;0,0473;-0,0004;0,0134;0,0171;0,0061;
15,959881;0,1407;0,7261;0,6635;-0,0388;0,0886;-0,0615;0,0134;0,0171;0,0061;
15,976222;0,1407;0,7261;0,6635;-0,0366;0,0417;-0,0152;0,0134;0,0171;0,0061;
15,981322;0,1407;0,7261;0,6635;-0,0366;0,0417;-0,0152;-0,0929;0,1051;-0,0452;
15,996252;0,1407;0,7261;0,6635;0,2501;0,1028;0,0035;-0,0929;0,1051;-0,0452;
16,001273;0,1378;0,7261;0,7153;0,2501;0,1028;0,0035;-0,0929;0,1051;-0,0452;
16,016308;0,1378;0,7261;0,7153;0,1009;0,1901;0,3335;-0,0929;0,1051;-0,0452;
16,036219;0,1378;0,7261;0,7153;-0,2904;-0,0461;0,5206;-0,0929;0,1051;-0,0452;
16,046305;0,1378;0,7261;0,7153;-0,2904;-0,0461;0,5206;0,0623;-0,0098;0,0293;
16,056719;0,1378;0,7261;0,7153;-0,1583;-0,0067;0,0512;0,0623;-0,0098;0,0293;
16,066207;0,1485;0,7271;0,6391;-0,1583;-0,0067;0,0512;0,0623;-0,0098;0,0293;
16,076482;0,1485;0,7271;0,6391;0,0351;0,1326;-0,2505;0,0623;-0,0098;0,0293;
16,096793;0,1485;0,7271;0,6391;0,0660;0,0562;-0,1647;0,0623;-0,0098;0,0293;
16,111904;0,1485;0,7271;0,6391;0,0660;0,0562;-0,1647;0,0904;-0,0525;0,0342;
16,116310;0,1485;0,7271;0,6391;-0,1066;0,0096;0,1724;0,0904;-0,0525;0,0342;
16,132365;0,1417;0,7359;0,6313;-0,1066;0,0096;0,1724;0,0904;-0,0525;0,0342;
16,137647;0,1417;0,7359;0,6313;-0,1007;0,0076;-0,1091;0,0904;-0,0525;0,0342;
16,158920;0,1417;0,7359;0,6313;0,0483;0,1968;-0,4391;0,0904;-0,0525;0,0342;
16,179916;0,1417;0,7359;0,6313;-0,0699;0,0933;-0,2966;0,0904;-0,0525;0,0342;
16,185883;0,1417;0,7359;0,6313;-0,0699;0,0933;-0,2966;-0,0159;-0,0073;-0,0049;
16,196202;0,1222;0,7163;0,7007;-0,0699;0,0933;-0,2966;-0,0159;-0,0073;-0,0049;
16,198108;0,1222;0,7163;0,7007;-0,0099;0,1079;0,3810;-0,0159;-0,0073;-0,0049;
16,216337;0,1222;0,7163;0,7007;-0,1774;0,0034;0,2795;-0,0159;-0,0073;-0,0049;
16,236402;0,1222;0,7163;0,7007;0,0445;0,1864;0,0511;-0,0159;-0,0073;-0,0049;
16,241522;0,1222;0,7163;0,7007;0,0445;0,1864;0,0511;0,0098;0,0513;0,0110;
16,256415;0,1222;0,7163;0,7007;-0,1201;0,0721;0,0891;0,0098;0,0513;0,0110;
16,261239;0,1241;0,7202;0,6753;-0,1201;0,0721;0,0891;0,0098;0,0513;0,0110;
16,276314;0,1241;0,7202;0,6753;-0,1643;-0,0002;-0,0177;0,0098;0,0513;0,0110;
16,296630;0,1241;0,7202;0,6753;-0,0074;0,0305;0,0689;0,0098;0,0513;0,0110;
16,306809;0,1241;0,7202;0,6753;-0,0074;0,0305;0,0689;0,0623;-0,0305;0,0305;
16,319591;0,1241;0,7202;0,6753;-0,0202;0,0270;0,0047;0,0623;-0,0305;0,0305;
16,326728;0,1544;0,7310;0,6303;-0,0202;0,0270;0,0047;0,0623;-0,0305;0,0305;
16,336616;0,1544;0,7310;0,6303;-0,0378;0,0978;-0,2599;0,0623;-0,0305;0,0305;
16,357803;0,1544;0,7310;0,6303;0,1008;0,0699;-0,3759;0,0623;-0,0305;0,0305;
16,373565;0,1544;0,7310;0,6303;0,1008;0,0699;-0,3759;0,0525;-0,0990;-0,0232;
16,380148;0,1544;0,7310;0,6303;0,0648;0,0232;0,1544;0,0525;-0,0990;-0,0232;
16,391258;0,1241;0,7153;0,6948;0,0648;0,0232;0,1544;0,0525;-0,0990;-0,0232;
16,396378;0,1241;0,7153;0,6948;-0,0522;-0,0007;0,5151;0,0525;-0,0990;-0,0232;
16,416283;0,1241;0,7153;0,6948;-0,1461;-0,0215;0,0691;0,0525;-0,0990;-0,0232;
16,436454;0,1241;0,7153;0,6948;-0,1664;0,0119;-0,1003;0,0525;-0,0990;-0,0232;
16,439927;0,1241;0,7153;0,6948;-0,1664;0,0119;-0,1003;-0,0012;0,0208;0,0342;
16,456442;0,1319;0,7271;0,7046;-0,1664;0,0119;-0,1003;-0,0012;0,0208;0,0342;
16,458454;0,1319;0,7271;0,7046;-0,1041;0,0602;0,2519;-0,0012;0,0208;0,0342;
16,476387;0,1319;0,7271;0,7046;-0,0792;0,1095;0,3185;-0,0012;0,0208;0,0342;
16,496567;0,1319;0,7271;0,7046;0,0345;0,2089;0,0558;-0,0012;0,0208;0,0342;
16,502181;0,1319;0,7271;0,7046;0,0345;0,2089;0,0558;0,0024;0,0733;0,0073;
16,517902;0,1319;0,7271;0,7046;0,1968;0,2227;-0,1471;0,0024;0,0733;0,0073;
16,522514;0,1476;0,7339;0,6714;0,1968;0,2227;-0,1471;0,0024;0,0733;0,0073;
16,536915;0,1476;0,7339;0,6714;0,1600;0,1407;-0,0751;0,0024;0,0733;0,0073;
16,558646;0,1476;0,7339;0,6714;-0,1431;-0,0107;0,0715;0,0024;0,0733;0,0073;
16,568680;0,1476;0,7339;0,6714;-0,1431;-0,0107;0,0715;0,1026;-0,0880;0,0024;
16,577527;0,1476;0,7339;0,6714;-0,1552;-0,0186;-0,0273;0,1026;-0,0880;0,0024;
16,587720;0,1378;0,7231;0,6342;-0,1552;-0,0186;-0,0273;0,1026;-0,0880;0,0024;
16,602569;0,1378;0,7231;0,6342;-0,0056;-0,0252;-0,2894;0,1026;-0,0880;0,0024;
16,618692;0,1378;0,7231;0,6342;-0,1871;-0,0401;-0,1945;0,1026;-0,0880;0,0024;
16,635321;0,1378;0,7231;0,6342;-0,1871;-0,0401;-0,1945;0,0599;-0,0257;0,0538;
16,641091;0,1378;0,7231;0,6342;-0,2721;-0,1248;0,1292;0,0599;-0,0257;0,0538;
16,653321;0,1437;0,7212;0,6411;-0,2721;-0,1248;0,1292;0,0599;-0,0257;0,0538;
16,660286;0,1437;0,7212;0,6411;-0,0902;-0,1044;-0,0178;0,0599;-0,0257;0,0538;
16,677943;0,1437;0,7212;0,6411;0,1112;0,0311;-0,2934;0,0599;-0,0257;0,0538;
16,701752;0,1437;0,7212;0,6411;0,1685;0,1561;-0,2981;0,0599;-0,0257;0,0538;
16,708514;0,1437;0,7212;0,6411;0,1685;0,1561;-0,2981;-0,0635;0,0159;-0,0073;
16,721228;0,1437;0,7114;0,6987;0,1685;0,1561;-0,2981;-0,0635;0,0159;-0,0073;
16,726701;0,1437;0,7114;0,6987;0,0379;0,0138;0,0209;-0,0635;0,0159;-0,0073;
16,737305;0,1437;0,7114;0,6987;-0,0181;-0,1146;0,3442;-0,0635;0,0159;-0,0073;
16,758083;0,1437;0,7114;0,6987;-0,0611;0,0561;0,1031;-0,0635;0,0159;-0,0073;
16,766805;0,1437;0,7114;0,6987;-0,0611;0,0561;0,1031;0,0208;-0,0330;0,0073;
16,776206;0,1437;0,7114;0,6987;0,1156;0,1213;-0,0185;0,0208;-0,0330;0,0073;
16,781381;0,1554;0,7329;0,6694;0,1156;0,1213;-0,0185;0,0208;-0,0330;0,0073;
16,796203;0,1554;0,7329;0,6694;0,0386;0,1067;0,0277;0,0208;-0,0330;0,0073;
16,816453;0,1554;0,7329;0,6694;0,1760;0,0803;0,0440;0,0208;-0,0330;0,0073;
16,828554;0,1554;0,7329;0,6694;0,1760;0,0803;0,0440;0,0049;-0,0037;-0,0171;
16,836225;0,1554;0,7329;0,6694;0,0368;0,1289;-0,0062;0,0049;-0,0037;-0,0171;
16,846184;0,1192;0,7183;0,6811;0,0368;0,1289;-0,0062;0,0049;-0,0037;-0,0171;
16,856458;0,1192;0,7183;0,6811;-0,1925;-0,0440;0,1357;0,0049;-0,0037;-0,0171;
16,876272;0,1192;0,7183;0,6811;-0,1591;-0,0441;0,0760;0,0049;-0,0037;-0,0171;
16,892294;0,1192;0,7183;0,6811;-0,1591;-0,0441;0,0760;-0,0770;0,0916;-0,0134;
16,898644;0,1192;0,7183;0,6811;0,2002;0,0072;-0,2561;-0,0770;0,0916;-0,0134;
16,912825;0,1485;0,7378;0,6743;0,2002;0,0072;-0,2561;-0,0770;0,0916;-0,0134;
16,916976;0,1485;0,7378;0,6743;0,2425;0,1476;-0,0686;-0,0770;0,0916;-0,0134;
16,937811;0,1485;0,7378;0,6743;-0,0647;0,0612;0,0229;-0,0770;0,0916;-0,0134;
16,958079;0,1485;0,7378;0,6743;-0,1921;0,0204;0,2518;-0,0770;0,0916;-0,0134;
16,966105;0,1485;0,7378;0,6743;-0,1921;0,0204;0,2518;0,0721;-0,0794;-0,0171;
16,981889;0,1456;0,7231;0,6352;-0,1921;0,0204;0,2518;0,0721;-0,0794;-0,0171;
16,989379;0,1456;0,7231;0,6352;-0,0029;0,0166;-0,0563;0,0721;-0,0794;-0,0171;
16,999873;0,1456;0,7231;0,6352;0,0054;-0,0046;-0,2758;0,0721;-0,0794;-0,0171;
17,018253;0,1456;0,7231;0,6352;-0,1843;-0,0272;0,0291;0,0721;-0,0794;-0,0171;
17,026069;0,1456;0,7231;0,6352;-0,1843;-0,0272;0,0291;0,0379;-0,0525;0,0122;
17,036668;0,1456;0,7231;0,6352;-0,2028;-0,0457;0,1009;0,0379;-0,0525;0,0122;
17,043052;0,1212;0,7124;0,6508;-0,2028;-0,0457;0,1009;0,0379;-0,0525;0,0122;
17,056560;0,1212;0,7124;0,6508;-0,2376;-0,0953;-0,0442;0,0379;-0,0525;0,0122;
17,076743;0,1212;0,7124;0,6508;-0,1122;-0,0731;-0,2978;0,0379;-0,0525;0,0122;
17,086856;0,1212;0,7124;0,6508;-0,1122;-0,0731;-0,2978;-0,0452;0,0098;0,0489;
17,096780;0,1212;0,7124;0,6508;-0,1019;0,0291;-0,0454;-0,0452;0,0098;0,0489;
17,113108;0,1378;0,7192;0,6958;-0,1019;0,0291;-0,0454;-0,0452;0,0098;0,0489;
17,119221;0,1378;0,7192;0,6958;-0,0828;-0,0125;0,2205;-0,0452;0,0098;0,0489;
17,137543;0,1378;0,7192;0,6958;0,0524;-0,0280;0,2381;-0,0452;0,0098;0,0489;
17,152516;0,1378;0,7192;0,6958;0,0524;-0,0280;0,2381;0,0183;-0,0134;0,0562;
17,162153;0,1378;0,7192;0,6958;0,0048;-0,0828;-0,0849;0,0183;-0,0134;0,0562;
17,172552;0,1339;0,6997;0,6254;0,0048;-0,0828;-0,0849;0,0183;-0,0134;0,0562;
17,180742;0,1339;0,6997;0,6254;-0,0698;-0,1265;-0,4099;0,0183;-0,0134;0,0562;
17,197393;0,1339;0,6997;0,6254;-0,1663;-0,2168;-0,3198;0,0183;-0,0134;0,0562;
17,216494;0,1339;0,6997;0,6254;-0,0627;-0,1364;-0,3610;0,0183;-0,0134;0,0562;
17,218999;0,1339;0,6997;0,6254;-0,0627;-0,1364;-0,3610;0,0134;-0,1014;0,0684;
17,236201;0,1300;0,7241;0,5668;-0,0627;-0,1364;-0,3610;0,0134;-0,1014;0,0684;
17,239719;0,1300;0,7241;0,5668;-0,1082;-0,0855;-0,6902;0,0134;-0,1014;0,0684;
17,256496;0,1300;0,7241;0,5668;-0,2391;0,0055;-0,9234;0,0134;-0,1014;0,0684;
17,276278;0,1300;0,7241;0,5668;-0,4117;-0,0911;-0,5620;0,0134;-0,1014;0,0684;
17,281572;0,1300;0,7241;0,5668;-0,4117;-0,0911;-0,5620;-0,2065;-0,0232;0,1564;
17,296346;0,1300;0,7241;0,5668;-1,2234;-0,1355;-0,1485;-0,2065;-0,0232;0,1564;
17,301194;-0,0137;0,7026;0,6977;-1,2234;-0,1355;-0,1485;-0,2065;-0,0232;0,1564;
17,316660;-0,0137;0,7026;0,6977;-1,4997;-0,1353;0,1938;-0,2065;-0,0232;0,1564;
17,336656;-0,0137;0,7026;0,6977;-1,7805;-0,0277;0,4375;-0,2065;-0,0232;0,1564;
17,346681;-0,0137;0,7026;0,6977;-1,7805;-0,0277;0,4375;-0,4019;0,3079;0,4459;
17,357612;-0,0137;0,7026;0,6977;-1,8609;0,2963;0,6728;-0,4019;0,3079;0,4459;
17,367544;-0,2091;0,8385;0,9460;-1,8609;0,2963;0,6728;-0,4019;0,3079;0,4459;
17,382234;-0,2091;0,8385;0,9460;-2,6069;1,0340;1,9301;-0,4019;0,3079;0,4459;
17,398361;-0,2091;0,8385;0,9460;-3,8242;1,5656;2,9421;-0,4019;0,3079;0,4459;
17,411509;-0,2091;0,8385;0,9460;-3,8242;1,5656;2,9421;0,5681;0,0195;0,9224;
17,416404;-0,2091;0,8385;0,9460;-4,1677;2,6640;3,8103;0,5681;0,0195;0,9224;
17,431319;-0,2941;1,0730;1,1434;-4,1677;2,6640;3,8103;0,5681;0,0195;0,9224;
17,438267;-0,2941;1,0730;1,1434;-4,1552;3,2609;3,9121;0,5681;0,0195;0,9224;
17,456432;-0,2941;1,0730;1,1434;-4,0770;3,6883;4,5387;0,5681;0,0195;0,9224;
17,476240;-0,2941;1,0730;1,1434;-2,5934;3,7407;4,8312;0,5681;0,0195;0,9224;
17,479392;-0,2941;1,0730;1,1434;-2,5934;3,7407;4,8312;1,4771;0,1820;1,4465;
17,496314;0,7183;1,3388;0,9088;-2,5934;3,7407;4,8312;1,4771;0,1820;1,4465;
17,499172;0,7183;1,3388;0,9088;1,7823;4,6620;3,3262;1,4771;0,1820;1,4465;
17,516839;0,7183;1,3388;0,9088;5,0868;5,8897;2,7050;1,4771;0,1820;1,4465;
17,538526;0,7183;1,3388;0,9088;4,4238;5,5737;4,2035;1,4771;0,1820;1,4465;
17,546284;0,7183;1,3388;0,9088;4,4238;5,5737;4,2035;2,3702;0,0855;0,3396;
17,556845;0,7183;1,3388;0,9088;3,5167;4,7295;4,6580;2,3702;0,0855;0,3396;
17,563742;0,7329;1,1649;0,8512;3,5167;4,7295;4,6580;2,3702;0,0855;0,3396;
17,577547;0,7329;1,1649;0,8512;4,5901;3,7572;3,2857;2,3702;0,0855;0,3396;
17,597287;0,7329;1,1649;0,8512;4,9294;3,0662;2,7294;2,3702;0,0855;0,3396;
17,608604;0,7329;1,1649;0,8512;4,9294;3,0662;2,7294;2,6060;-0,1014;-0,2834;
17,617971;0,7329;1,1649;0,8512;4,5900;2,9070;1,2796;2,6060;-0,1014;-0,2834;
17,628538;0,7241;0,9714;0,2492;4,5900;2,9070;1,2796;2,6060;-0,1014;-0,2834;
17,639458;0,7241;0,9714;0,2492;4,3663;1,6113;-1,0647;2,6060;-0,1014;-0,2834;
17,658198;0,7241;0,9714;0,2492;4,5442;0,1890;0,6493;2,6060;-0,1014;-0,2834;
17,671496;0,7241;0,9714;0,2492;4,5442;0,1890;0,6493;2,4569;-0,5473;-0,3348;
17,676239;0,7241;0,9714;0,2492;4,2814;-1,2333;3,2785;2,4569;-0,5473;-0,3348;
17,691235;0,7212;0,6166;0,2414;4,2814;-1,2333;3,2785;2,4569;-0,5473;-0,3348;
17,696117;0,7212;0,6166;0,2414;4,0576;-2,6502;1,6013;2,4569;-0,5473;-0,3348;
17,716384;0,7212;0,6166;0,2414;4,2492;-2,8720;-1,0000;2,4569;-0,5473;-0,3348;
17,736296;0,7212;0,6166;0,2414;4,5672;-3,0023;-2,0928;2,4569;-0,5473;-0,3348;
17,740137;0,7212;0,6166;0,2414;4,5672;-3,0023;-2,0928;1,4978;-0,9371;-0,6976;
17,756511;0,7788;0,5902;-0,1231;4,5672;-3,0023;-2,0928;1,4978;-0,9371;-0,6976;
17,759952;0,7788;0,5902;-0,1231;5,5428;-2,6829;-2,6624;1,4978;-0,9371;-0,6976;
17,776326;0,7788;0,5902;-0,1231;4,5353;-3,3680;-2,2915;1,4978;-0,9371;-0,6976;
17,796587;0,7788;0,5902;-0,1231;2,2395;-3,5808;-0,2445;1,4978;-0,9371;-0,6976;
17,802405;0,7788;0,5902;-0,1231;2,2395;-3,5808;-0,2445;1,1167;-1,5614;-0,5596;
17,817850;0,7788;0,5902;-0,1231;2,1084;-3,7578;-0,3890;1,1167;-1,5614;-0,5596;
17,825420;0,5648;0,5824;-0,0831;2,1084;-3,7578;-0,3890;1,1167;-1,5614;-0,5596;
17,837444;0,5648;0,5824;-0,0831;2,1384;-3,4247;-0,8054;1,1167;-1,5614;-0,5596;
17,857625;0,5648;0,5824;-0,0831;2,0853;-3,6863;-1,4410;1,1167;-1,5614;-0,5596;
17,874479;0,5648;0,5824;-0,0831;2,0853;-3,6863;-1,4410;0,9016;-2,5217;-0,6695;
17,878012;0,5648;0,5824;-0,0831;1,9593;-3,8058;-1,9814;0,9016;-2,5217;-0,6695;
17,887893;0,4740;0,4964;-0,2590;1,9593;-3,8058;-1,9814;0,9016;-2,5217;-0,6695;
17,897804;0,4740;0,4964;-0,2590;1,8886;-4,0554;-1,7369;0,9016;-2,5217;-0,6695;
17,917513;0,4740;0,4964;-0,2590;0,8178;-4,3875;-0,9398;0,9016;-2,5217;-0,6695;
17,936587;0,4740;0,4964;-0,2590;0,8178;-4,3875;-0,9398;0,1454;-2,2248;-0,6658;
17,947904;0,4740;0,4964;-0,2590;0,9576;-4,5229;-1,2757;0,1454;-2,2248;-0,6658;
17,953939;0,3723;0,4603;-0,2981;0,9576;-4,5229;-1,2757;0,1454;-2,2248;-0,6658;
17,961131;0,3723;0,4603;-0,2981;1,3274;-4,0613;-0,8577;0,1454;-2,2248;-0,6658;
17,976223;0,3723;0,4603;-0,2981;0,5156;-4,6108;-0,6705;0,1454;-2,2248;-0,6658;
17,996182;0,3723;0,4603;-0,2981;-1,1493;-5,0123;-0,1742;0,1454;-2,2248;-0,6658;
17,999456;0,3723;0,4603;-0,2981;-1,1493;-5,0123;-0,1742;-0,4533;-2,1356;-0,7074;
18,016540;0,0381;0,4163;-0,0625;-1,1493;-5,0123;-0,1742;-0,4533;-2,1356;-0,7074;
18,019740;0,0381;0,4163;-0,0625;-1,4892;-5,0038;1,2438;-0,4533;-2,1356;-0,7074;
18,036341;0,0381;0,4163;-0,0625;-1,6191;-5,0784;1,9477;-0,4533;-2,1356;-0,7074;
18,056470;0,0381;0,4163;-0,0625;-1,7733;-5,4562;2,2726;-0,4533;-2,1356;-0,7074;
18,061316;0,0381;0,4163;-0,0625;-1,7733;-5,4562;2,2726;-0,9212;-1,4661;-0,4288;
18,076318;0,0381;0,4163;-0,0625;-1,9361;-5,9569;2,3465;-0,9212;-1,4661;-0,4288;
18,082870;-0,1749;0,3968;0,1759;-1,9361;-5,9569;2,3465;-0,9212;-1,4661;-0,4288;
18,098699;-0,1749;0,3968;0,1759;-2,7067;-5,3788;3,7194;-0,9212;-1,4661;-0,4288;
18,116821;-0,1749;0,3968;0,1759;-2,5721;-6,1306;3,6741;-0,9212;-1,4661;-0,4288;
18,127429;-0,1749;0,3968;0,1759;-2,5721;-6,1306;3,6741;-0,4019;-1,5052;-0,1283;
18,137492;-0,1749;0,3968;0,1759;-2,3692;-6,5549;2,8956;-0,4019;-1,5052;-0,1283;
18,149503;-0,2775;0,4388;0,0860;-2,3692;-6,5549;2,8956;-0,4019;-1,5052;-0,1283;
18,157297;-0,2775;0,4388;0,0860;-2,3969;-5,6871;1,9199;-0,4019;-1,5052;-0,1283;
18,177657;-0,2775;0,4388;0,0860;-3,0352;-5,2783;2,3034;-0,4019;-1,5052;-0,1283;
18,191657;-0,2775;0,4388;0,0860;-3,0352;-5,2783;2,3034;-0,8259;-1,2975;0,3506;
18,196316;-0,2775;0,4388;0,0860;-3,2813;-5,5935;2,1290;-0,8259;-1,2975;0,3506;
18,212680;-0,4534;0,4798;0,2707;-3,2813;-5,5935;2,1290;-0,8259;-1,2975;0,3506;
18,216416;-0,4534;0,4798;0,2707;-3,3516;-6,1344;2,0144;-0,8259;-1,2975;0,3506;
18,236469;-0,4534;0,4798;0,2707;-3,6914;-4,2701;3,0517;-0,8259;-1,2975;0,3506;
18,256606;-0,4534;0,4798;0,2707;-3,3325;-4,1857;2,7898;-0,8259;-1,2975;0,3506;
18,260319;-0,4534;0,4798;0,2707;-3,3325;-4,1857;2,7898;-1,6567;-0,6683;0,7929;
18,276255;-0,5267;0,5062;0,5971;-3,3325;-4,1857;2,7898;-1,6567;-0,6683;0,7929;
18,278958;-0,5267;0,5062;0,5971;-3,6454;-5,1644;2,6517;-1,6567;-0,6683;0,7929;
18,296321;-0,5267;0,5062;0,5971;-4,1394;-4,6671;4,9538;-1,6567;-0,6683;0,7929;
18,316924;-0,5267;0,5062;0,5971;-2,8236;-3,0182;5,7166;-1,6567;-0,6683;0,7929;
18,322383;-0,5267;0,5062;0,5971;-2,8236;-3,0182;5,7166;-2,0122;0,5742;1,3097;
18,336660;-0,5267;0,5062;0,5971;-1,7752;-2,6895;4,2879;-2,0122;0,5742;1,3097;
18,341736;-0,1896;0,7886;0,7505;-1,7752;-2,6895;4,2879;-2,0122;0,5742;1,3097;
18,357984;-0,1896;0,7886;0,7505;-1,0854;-1,9431;4,2096;-2,0122;0,5742;1,3097;
18,381659;-0,1896;0,7886;0,7505;-1,0876;-0,2254;5,3717;-2,0122;0,5742;1,3097;
18,391976;-0,1896;0,7886;0,7505;-1,0876;-0,2254;5,3717;-2,9334;2,1270;1,0739;
18,401471;-0,1896;0,7886;0,7505;-1,2222;0,3282;5,5026;-2,9334;2,1270;1,0739;
18,412849;-0,2775;0,9430;1,1756;-1,2222;0,3282;5,5026;-2,9334;2,1270;1,0739;
18,417321;-0,2775;0,9430;1,1756;-2,1647;0,1475;5,9270;-2,9334;2,1270;1,0739;
18,436317;-0,2775;0,9430;1,1756;-2,1243;1,5367;8,0789;-2,9334;2,1270;1,0739;
18,451508;-0,2775;0,9430;1,1756;-2,1243;1,5367;8,0789;-1,8082;2,3286;1,3500;
18,456170;-0,2775;0,9430;1,1756;-0,7259;2,5649;8,9671;-1,8082;2,3286;1,3500;
18,471486;0,0010;1,2352;1,3789;-0,7259;2,5649;8,9671;-1,8082;2,3286;1,3500;
18,476878;0,0010;1,2352;1,3789;1,2660;4,1969;8,1523;-1,8082;2,3286;1,3500;
18,496386;0,0010;1,2352;1,3789;0,0199;4,3757;7,3367;-1,8082;2,3286;1,3500;
18,516703;0,0010;1,2352;1,3789;0,5879;4,3392;8,1479;-1,8082;2,3286;1,3500;
18,519871;0,0010;1,2352;1,3789;0,5879;4,3392;8,1479;-0,7489;2,5180;1,5809;
18,536421;0,4007;1,3398;1,0642;0,5879;4,3392;8,1479;-0,7489;2,5180;1,5809;
18,539699;0,4007;1,3398;1,0642;4,0980;5,5011;7,3753;-0,7489;2,5180;1,5809;
18,556547;0,4007;1,3398;1,0642;4,4761;6,1107;3,7227;-0,7489;2,5180;1,5809;
18,576853;0,4007;1,3398;1,0642;3,1249;5,2652;2,4189;-0,7489;2,5180;1,5809;
18,584301;0,4007;1,3398;1,0642;3,1249;5,2652;2,4189;-0,2492;2,3140;1,6762;
18,597406;0,4007;1,3398;1,0642;5,1675;5,7307;4,7086;-0,2492;2,3140;1,6762;
18,611188;0,6518;1,1912;0,9225;5,1675;5,7307;4,7086;-0,2492;2,3140;1,6762;
18,619729;0,6518;1,1912;0,9225;6,9530;5,0501;2,9582;-0,2492;2,3140;1,6762;
18,637273;0,6518;1,1912;0,9225;6,6731;3,9214;-0,5800;-0,2492;2,3140;1,6762;
18,646541;0,6518;1,1912;0,9225;6,6731;3,9214;-0,5800;0,6231;0,9835;1,3280;
18,656897;0,6518;1,1912;0,9225;7,1486;3,6738;-1,3656;0,6231;0,9835;1,3280;
18,666146;0,8170;0,9968;0,6196;7,1486;3,6738;-1,3656;0,6231;0,9835;1,3280;
18,676423;0,8170;0,9968;0,6196;8,0703;3,1013;-0,4278;0,6231;0,9835;1,3280;
18,696234;0,8170;0,9968;0,6196;7,1482;1,8799;-0,6120;0,6231;0,9835;1,3280;
18,711632;0,8170;0,9968;0,6196;7,1482;1,8799;-0,6120;0,6793;0,6304;0,6683;
18,716374;0,8170;0,9968;0,6196;5,7598;0,6143;-1,6199;0,6793;0,6304;0,6683;
18,731936;0,4857;0,7456;0,3948;5,7598;0,6143;-1,6199;0,6793;0,6304;0,6683;
18,736496;0,4857;0,7456;0,3948;4,7139;0,2522;-1,7888;0,6793;0,6304;0,6683;
18,756656;0,4857;0,7456;0,3948;3,6535;-0,5607;-1,8886;0,6793;0,6304;0,6683;
18,777692;0,4857;0,7456;0,3948;3,5418;-0,6932;-0,5276;0,6793;0,6304;0,6683;
18,788052;0,4857;0,7456;0,3948;3,5418;-0,6932;-0,5276;0,3335;-0,0953;0,1857;
18,797336;0,3010;0,6166;0,5062;3,5418;-0,6932;-0,5276;0,3335;-0,0953;0,1857;
18,803994;0,3010;0,6166;0,5062;2,3569;-1,4078;-0,0260;0,3335;-0,0953;0,1857;
18,817445;0,3010;0,6166;0,5062;1,4617;-1,7162;-0,7048;0,3335;-0,0953;0,1857;
18,842714;0,3010;0,6166;0,5062;1,0732;-1,4015;-0,0408;0,3335;-0,0953;0,1857;
18,851707;0,3010;0,6166;0,5062;1,0732;-1,4015;-0,0408;0,1442;-0,2382;0,0672;
18,857513;0,3010;0,6166;0,5062;0,1974;-1,4814;0,7850;0,1442;-0,2382;0,0672;
18,862228;0,1788;0,6342;0,6284;0,1974;-1,4814;0,7850;0,1442;-0,2382;0,0672;
18,877517;0,1788;0,6342;0,6284;-0,0415;-1,4515;0,4602;0,1442;-0,2382;0,0672;
18,896250;0,1788;0,6342;0,6284;-0,1868;-1,1615;0,1494;0,1442;-0,2382;0,0672;
18,906471;0,1788;0,6342;0,6284;-0,1868;-1,1615;0,1494;-0,0367;-0,2724;0,0562;
18,916536;0,1788;0,6342;0,6284;-0,6158;-0,7698;-0,5268;-0,0367;-0,2724;0,0562;
18,926402;0,1632;0,7417;0,5932;-0,6158;-0,7698;-0,5268;-0,0367;-0,2724;0,0562;
18,936852;0,1632;0,7417;0,5932;0,0720;-0,1781;-0,1834;-0,0367;-0,2724;0,0562;
18,956265;0,1632;0,7417;0,5932;-0,2954;-0,4437;0,1919;-0,0367;-0,2724;0,0562;
18,971765;0,1632;0,7417;0,5932;-0,2954;-0,4437;0,1919;-0,1466;0,0354;-0,0562;
18,976558;0,1632;0,7417;0,5932;-0,1792;-0,2057;0,3487;-0,1466;0,0354;-0,0562;
18,991424;0,1036;0,7642;0,6626;-0,1792;-0,2057;0,3487;-0,1466;0,0354;-0,0562;
18,996328;0,1036;0,7642;0,6626;-0,4748;0,0789;0,2592;-0,1466;0,0354;-0,0562;
19,016925;0,1036;0,7642;0,6626;-0,7008;-0,1831;0,7305;-0,1466;0,0354;-0,0562;
19,037195;0,1036;0,7642;0,6626;-0,5995;-0,0006;0,5478;-0,1466;0,0354;-0,0562;
19,045031;0,1036;0,7642;0,6626;-0,5995;-0,0006;0,5478;0,0049;-0,0452;-0,0525;
19,057840;0,0958;0,8121;0,5482;-0,5995;-0,0006;0,5478;0,0049;-0,0452;-0,0525;
19,066719;0,0958;0,8121;0,5482;-0,4251;0,3528;-0,2899;0,0049;-0,0452;-0,0525;
19,077580;0,0958;0,8121;0,5482;-0,6925;0,3482;-0,4576;0,0049;-0,0452;-0,0525;
19,096256;0,0958;0,8121;0,5482;-0,4579;0,4175;-0,0856;0,0049;-0,0452;-0,0525;
19,102762;0,0958;0,8121;0,5482;-0,4579;0,4175;-0,0856;-0,2761;0,0452;-0,0599;
19,118705;0,0958;0,8121;0,5482;-0,2551;0,4994;0,0176;-0,2761;0,0452;-0,0599;
19,122850;0,1055;0,8013;0,6850;-0,2551;0,4994;0,0176;-0,2761;0,0452;-0,0599;
19,136505;0,1055;0,8013;0,6850;-0,4866;0,3363;0,6310;-0,2761;0,0452;-0,0599;
19,156179;0,1055;0,8013;0,6850;-0,4813;0,1138;0,9548;-0,2761;0,0452;-0,0599;
19,167998;0,1055;0,8013;0,6850;-0,4813;0,1138;0,9548;0,1332;-0,1038;0,0794;
19,176608;0,1055;0,8013;0,6850;-0,1220;0,0407;0,9861;0,1332;-0,1038;0,0794;
19,189373;0,1544;0,7652;0,6117;-0,1220;0,0407;0,9861;0,1332;-0,1038;0,0794;
19,196482;0,1544;0,7652;0,6117;-0,1832;-0,1314;0,3072;0,1332;-0,1038;0,0794;
19,216800;0,1544;0,7652;0,6117;0,2319;0,0485;0,0404;0,1332;-0,1038;0,0794;
19,231868;0,1544;0,7652;0,6117;0,2319;0,0485;0,0404;0,0269;-0,0086;0,0391;
19,237490;0,1544;0,7652;0,6117;0,1655;-0,1366;-0,0124;0,0269;-0,0086;0,0391;
19,254921;0,1759;0,7525;0,6186;0,1655;-0,1366;-0,0124;0,0269;-0,0086;0,0391;
19,260959;0,1759;0,7525;0,6186;-0,1024;-0,2589;-0,1527;0,0269;-0,0086;0,0391;
19,277728;0,1759;0,7525;0,6186;0,1142;-0,1665;0,2170;0,0269;-0,0086;0,0391;
19,297226;0,1759;0,7525;0,6186;0,0472;-0,1718;-0,0430;0,0269;-0,0086;0,0391;
19,301320;0,1759;0,7525;0,6186;0,0472;-0,1718;-0,0430;0,0709;-0,1014;-0,0110;
19,317419;0,1642;0,7661;0,5492;0,0472;-0,1718;-0,0430;0,0709;-0,1014;-0,0110;
19,323883;0,1642;0,7661;0,5492;0,3163;0,0473;-0,3400;0,0709;-0,1014;-0,0110;
19,337330;0,1642;0,7661;0,5492;-0,1074;-0,0832;-0,4471;0,0709;-0,1014;-0,0110;
19,357417;0,1642;0,7661;0,5492;-0,1625;-0,2744;-0,3242;0,0709;-0,1014;-0,0110;
19,365931;0,1642;0,7661;0,5492;-0,1625;-0,2744;-0,3242;-0,1613;0,0880;-0,0550;
19,377626;0,1642;0,7661;0,5492;0,0480;-0,3162;0,0278;-0,1613;0,0880;-0,0550;
19,385546;0,1534;0,7583;0,6450;0,0480;-0,3162;0,0278;-0,1613;0,0880;-0,0550;
19,397895;0,1534;0,7583;0,6450;-0,0929;-0,0951;0,3481;-0,1613;0,0880;-0,0550;
19,419921;0,1534;0,7583;0,6450;-0,2476;-0,1865;0,4243;-0,1613;0,0880;-0,0550;
19,431632;0,1534;0,7583;0,6450;-0,2476;-0,1865;0,4243;-0,1283;0,1051;0,0012;
19,440593;0,1534;0,7583;0,6450;-0,2149;-0,1554;-0,0718;-0,1283;0,1051;0,0012;
19,448277;0,1730;0,7857;0,5785;-0,2149;-0,1554;-0,0718;-0,1283;0,1051;0,0012;
19,456315;0,1730;0,7857;0,5785;0,1225;0,1153;-0,2473;-0,1283;0,1051;0,0012;
19,476605;0,1730;0,7857;0,5785;-0,1920;0,0613;-0,1196;-0,1283;0,1051;0,0012;
19,491615;0,1730;0,7857;0,5785;-0,1920;0,0613;-0,1196;-0,1173;0,0244;0,0489;
