
time;gFx;gFy;gFz;ax;ay;az;wx;wy;wz;
0,032189;0,0000;0,0000;0,0000;-0,4686;-0,5262;-2,3052;0,0000;0,0000;0,0000;
0,051480;0,0000;0,0000;0,0000;-0,4686;-0,5262;-2,3052;0,0000;0,0000;0,0000;
0,071430;0,0000;0,0000;0,0000;-0,4686;-0,5262;-2,3052;0,0000;0,0000;0,0000;
0,076476;0,0645;0,6782;0,8287;-0,4686;-0,5262;-2,3052;0,0000;0,0000;0,0000;
0,091643;0,0645;0,6782;0,8287;-0,4686;-0,5262;-2,3052;0,0000;0,0000;0,0000;
0,111734;0,0645;0,6782;0,8287;-0,4686;-0,5262;-2,3052;0,0000;0,0000;0,0000;
0,132098;0,0645;0,6782;0,8287;-0,4686;-0,5262;-2,3052;0,0000;0,0000;0,0000;
0,141879;-0,1231;0,6372;0,6323;-0,4686;-0,5262;-2,3052;0,0000;0,0000;0,0000;
0,152054;-0,1231;0,6372;0,6323;-0,4686;-0,5262;-2,3052;0,0000;0,0000;0,0000;
0,172194;-0,1231;0,6372;0,6323;-0,4686;-0,5262;-2,3052;0,0000;0,0000;0,0000;
0,192332;-0,1231;0,6372;0,6323;-0,4686;-0,5262;-2,3052;0,0000;0,0000;0,0000;
0,207695;-0,0215;0,6323;0,8306;-0,4686;-0,5262;-2,3052;0,0000;0,0000;0,0000;
0,213248;-0,0215;0,6323;0,8306;-0,4686;-0,5262;-2,3052;0,0000;0,0000;0,0000;
0,233082;-0,0215;0,6323;0,8306;-0,4686;-0,5262;-2,3052;0,0000;0,0000;0,0000;
0,252601;-0,0215;0,6323;0,8306;-0,4686;-0,5262;-2,3052;0,0000;0,0000;0,0000;
0,272479;0,0215;0,4603;0,8150;-0,4686;-0,5262;-2,3052;0,0000;0,0000;0,0000;
0,277310;0,0215;0,4603;0,8150;-0,4686;-0,5262;-2,3052;0,0000;0,0000;0,0000;
0,292332;0,0215;0,4603;0,8150;-0,4686;-0,5262;-2,3052;0,0000;0,0000;0,0000;
0,315564;0,0215;0,4603;0,8150;-0,4686;-0,5262;-2,3052;0,0000;0,0000;0,0000;
0,331832;0,0215;0,4603;0,8150;-0,4686;-0,5262;-2,3052;0,0000;0,0000;0,0000;
0,336921;-0,0049;0,4437;0,8179;-0,4686;-0,5262;-2,3052;0,0000;0,0000;0,0000;
0,351894;-0,0049;0,4437;0,8179;0,6393;-3,4527;2,4178;0,0000;0,0000;0,0000;
0,371796;-0,0049;0,4437;0,8179;-0,0113;-3,0837;1,6100;0,0000;0,0000;0,0000;
0,379077;-0,0049;0,4437;0,8179;-0,0113;-3,0837;1,6100;-0,8552;-0,4386;0,0281;
0,392076;-0,0049;0,4437;0,8179;0,0146;-0,9716;0,2266;-0,8552;-0,4386;0,0281;
0,401676;-0,2893;0,5932;1,0603;0,0146;-0,9716;0,2266;-0,8552;-0,4386;0,0281;
0,412028;-0,2893;0,5932;1,0603;-2,3853;-0,7027;2,5476;-0,8552;-0,4386;0,0281;
0,432123;-0,2893;0,5932;1,0603;-1,2417;-2,1286;3,5503;-0,8552;-0,4386;0,0281;
0,441775;-0,2893;0,5932;1,0603;-1,2417;-2,1286;3,5503;0,2834;-0,0648;0,1112;
0,452188;-0,2893;0,5932;1,0603;-0,4534;-1,9332;0,6475;0,2834;-0,0648;0,1112;
0,466877;-0,0547;0,5267;0,8062;-0,4534;-1,9332;0,6475;0,2834;-0,0648;0,1112;
0,471733;-0,0547;0,5267;0,8062;-0,9951;-1,6100;0,6087;0,2834;-0,0648;0,1112;
0,494145;-0,0547;0,5267;0,8062;0,7454;-1,6030;1,0076;0,2834;-0,0648;0,1112;
0,507068;-0,0547;0,5267;0,8062;0,7454;-1,6030;1,0076;0,1881;-0,0073;0,3531;
0,511885;-0,0547;0,5267;0,8062;0,9055;-1,1529;0,7348;0,1881;-0,0073;0,3531;
0,531733;-0,1007;0,5414;0,8091;0,9055;-1,1529;0,7348;0,1881;-0,0073;0,3531;
0,534404;-0,1007;0,5414;0,8091;-0,3152;-1,1958;0,8316;0,1881;-0,0073;0,3531;
0,552062;-0,1007;0,5414;0,8091;-0,4999;-1,5778;1,0858;0,1881;-0,0073;0,3531;
0,571948;-0,1007;0,5414;0,8091;0,0113;-0,7788;1,7191;0,1881;-0,0073;0,3531;
0,575080;-0,1007;0,5414;0,8091;0,0113;-0,7788;1,7191;0,7391;-1,3989;0,5156;
0,592870;-0,1007;0,5414;0,8091;-0,2921;-0,8146;1,0727;0,7391;-1,3989;0,5156;
0,596829;0,0489;0,5482;0,6401;-0,2921;-0,8146;1,0727;0,7391;-1,3989;0,5156;
0,611853;0,0489;0,5482;0,6401;-0,1526;-1,5461;-0,1908;0,7391;-1,3989;0,5156;
0,631834;0,0489;0,5482;0,6401;0,4826;-0,9084;-0,7351;0,7391;-1,3989;0,5156;
0,639009;0,0489;0,5482;0,6401;0,4826;-0,9084;-0,7351;-0,7636;-2,1576;0,3335;
0,652018;0,0489;0,5482;0,6401;-0,6070;-0,8496;0,9294;-0,7636;-2,1576;0,3335;
0,661713;-0,0459;0,3723;1,0398;-0,6070;-0,8496;0,9294;-0,7636;-2,1576;0,3335;
0,672029;-0,0459;0,3723;1,0398;-1,8329;-2,3653;3,3272;-0,7636;-2,1576;0,3335;
0,691796;-0,0459;0,3723;1,0398;-0,4277;-2,4208;2,1977;-0,7636;-2,1576;0,3335;
0,701924;-0,0459;0,3723;1,0398;-0,4277;-2,4208;2,1977;0,5327;-0,3238;0,5437;
0,711941;-0,0459;0,3723;1,0398;1,0113;-1,5319;0,6087;0,5327;-0,3238;0,5437;
0,726662;0,4016;0,5248;0,6958;1,0113;-1,5319;0,6087;0,5327;-0,3238;0,5437;
0,731862;0,4016;0,5248;0,6958;1,1873;-1,5378;0,4681;0,5327;-0,3238;0,5437;
0,752043;0,4016;0,5248;0,6958;2,1222;-1,4094;-0,3901;0,5327;-0,3238;0,5437;
0,767138;0,4016;0,5248;0,6958;2,1222;-1,4094;-0,3901;0,2871;-0,3372;-1,0886;
0,774389;0,4016;0,5248;0,6958;0,6115;-1,1912;1,2451;0,2871;-0,3372;-1,0886;
0,791931;0,2492;0,5805;0,9245;0,6115;-1,1912;1,2451;0,2871;-0,3372;-1,0886;
0,793848;0,2492;0,5805;0,9245;-0,5805;-0,8242;2,5362;0,2871;-0,3372;-1,0886;
0,811977;0,2492;0,5805;0,9245;0,8624;-0,9214;2,1096;0,2871;-0,3372;-1,0886;
0,831911;0,2492;0,5805;0,9245;2,0412;-0,7792;1,2600;0,2871;-0,3372;-1,0886;
0,834496;0,2492;0,5805;0,9245;2,0412;-0,7792;1,2600;1,4441;-0,0428;-1,4087;
0,852046;0,2492;0,5805;0,9245;-2,8802;1,1976;0,4229;1,4441;-0,0428;-1,4087;
0,857328;-0,1182;0,7036;0,4378;-2,8802;1,1976;0,4229;1,4441;-0,0428;-1,4087;
0,874749;-0,1182;0,7036;0,4378;-3,7014;0,5967;-1,4980;1,4441;-0,0428;-1,4087;
0,892202;-0,1182;0,7036;0,4378;0,4287;-0,6529;-2,0700;1,4441;-0,0428;-1,4087;
0,899899;-0,1182;0,7036;0,4378;0,4287;-0,6529;-2,0700;-0,3433;0,0403;0,0195;
0,912261;-0,1182;0,7036;0,4378;0,7596;-0,1623;-0,2120;-0,3433;0,0403;0,0195;
0,924847;0,1593;0,6929;0,7769;0,7596;-0,1623;-0,2120;-0,3433;0,0403;0,0195;
0,932251;0,1593;0,6929;0,7769;0,3865;-0,4876;1,3873;-0,3433;0,0403;0,0195;
0,952406;0,1593;0,6929;0,7769;0,3108;-0,3127;0,7044;-0,3433;0,0403;0,0195;
0,963385;0,1593;0,6929;0,7769;0,3108;-0,3127;0,7044;0,3665;-0,0880;-0,0904;
0,974091;0,1593;0,6929;0,7769;-0,2222;-0,6703;0,3292;0,3665;-0,0880;-0,0904;
0,990334;0,1495;0,7134;0,7124;-0,2222;-0,6703;0,3292;0,3665;-0,0880;-0,0904;
0,994253;0,1495;0,7134;0,7124;0,1422;-0,5068;0,7906;0,3665;-0,0880;-0,0904;
1,012489;0,1495;0,7134;0,7124;0,3460;-0,1654;0,5313;0,3665;-0,0880;-0,0904;
1,027335;0,1495;0,7134;0,7124;0,3460;-0,1654;0,5313;0,2773;0,0440;-0,0293;
1,032045;0,1495;0,7134;0,7124;-0,1839;-0,3127;0,5688;0,2773;0,0440;-0,0293;
1,055431;0,1368;0,7310;0,7437;-0,1839;-0,3127;0,5688;0,2773;0,0440;-0,0293;
1,057824;0,1368;0,7310;0,7437;-0,1584;-0,4325;0,8303;0,2773;0,0440;-0,0293;
1,072896;0,1368;0,7310;0,7437;0,3867;-0,0898;0,8889;0,2773;0,0440;-0,0293;
1,092347;0,1368;0,7310;0,7437;0,1059;-0,3907;0,3999;0,2773;0,0440;-0,0293;
1,096727;0,1368;0,7310;0,7437;0,1059;-0,3907;0,3999;0,1185;0,0709;-0,0501;
1,112266;0,1368;0,7310;0,7437;-0,5870;-0,6449;0,0548;0,1185;0,0709;-0,0501;
1,117008;0,1075;0,6968;0,6772;-0,5870;-0,6449;0,0548;0,1185;0,0709;-0,0501;
1,132305;0,1075;0,6968;0,6772;0,1155;-0,5495;0,3207;0,1185;0,0709;-0,0501;
1,154641;0,1075;0,6968;0,6772;0,0658;-0,3498;-0,1108;0,1185;0,0709;-0,0501;
1,160502;0,1075;0,6968;0,6772;0,0658;-0,3498;-0,1108;-0,1124;0,1625;0,1368;
1,172564;0,1075;0,6968;0,6772;-0,5519;-0,6574;0,1346;-0,1124;0,1625;0,1368;
1,182136;0,0508;0,6841;0,7446;-0,5519;-0,6574;0,1346;-0,1124;0,1625;0,1368;
1,192469;0,0508;0,6841;0,7446;-0,5786;-0,6457;0,6132;-0,1124;0,1625;0,1368;
1,212223;0,0508;0,6841;0,7446;0,2873;-0,2295;0,9077;-0,1124;0,1625;0,1368;
1,222555;0,0508;0,6841;0,7446;0,2873;-0,2295;0,9077;0,0440;0,1014;0,0867;
1,232244;0,0508;0,6841;0,7446;0,1706;-0,2129;0,2649;0,0440;0,1014;0,0867;
1,247172;0,0635;0,7153;0,7026;0,1706;-0,2129;0,2649;0,0440;0,1014;0,0867;
1,255262;0,0635;0,7153;0,7026;-0,1785;-0,0888;-0,1914;0,0440;0,1014;0,0867;
1,272287;0,0635;0,7153;0,7026;-0,0059;-0,1372;0,5834;0,0440;0,1014;0,0867;
1,287298;0,0635;0,7153;0,7026;-0,0059;-0,1372;0,5834;0,0916;-0,3543;0,1955;
1,292232;0,0635;0,7153;0,7026;-0,0279;-0,2927;0,4322;0,0916;-0,3543;0,1955;
1,312352;0,0674;0,7134;0,6772;-0,0279;-0,2927;0,4322;0,0916;-0,3543;0,1955;
1,314665;0,0674;0,7134;0,6772;0,0431;-0,2857;-0,4692;0,0916;-0,3543;0,1955;
1,332289;0,0674;0,7134;0,6772;-0,4038;-0,1926;0,1669;0,0916;-0,3543;0,1955;
1,352368;0,0674;0,7134;0,6772;-0,4863;-0,5940;1,0786;0,0916;-0,3543;0,1955;
1,358268;0,0674;0,7134;0,6772;-0,4863;-0,5940;1,0786;0,1833;-0,1613;0,2627;
1,372342;0,0674;0,7134;0,6772;-0,1891;-0,6677;0,8299;0,1833;-0,1613;0,2627;
1,377590;0,1300;0,6811;0,7906;-0,1891;-0,6677;0,8299;0,1833;-0,1613;0,2627;
1,392226;0,1300;0,6811;0,7906;0,0656;-0,4567;1,0545;0,1833;-0,1613;0,2627;
1,412298;0,1300;0,6811;0,7906;0,0233;-0,3806;0,7903;0,1833;-0,1613;0,2627;
1,422294;0,1300;0,6811;0,7906;0,0233;-0,3806;0,7903;0,2993;-0,0794;0,3543;
1,435500;0,1300;0,6811;0,7906;-0,5792;-0,3396;0,1715;0,2993;-0,0794;0,3543;
1,441924;-0,0205;0,8228;0,7231;-0,5792;-0,3396;0,1715;0,2993;-0,0794;0,3543;
1,452386;-0,0205;0,8228;0,7231;-1,1972;0,5046;0,2869;0,2993;-0,0794;0,3543;
1,472283;-0,0205;0,8228;0,7231;-1,7553;1,2889;1,1669;0,2993;-0,0794;0,3543;
1,484629;-0,0205;0,8228;0,7231;-1,7553;1,2889;1,1669;0,3629;-0,1503;0,5754;
1,492255;-0,0205;0,8228;0,7231;-2,4948;2,6363;1,8567;0,3629;-0,1503;0,5754;
1,507044;0,0381;1,1864;1,0964;-2,4948;2,6363;1,8567;0,3629;-0,1503;0,5754;
1,512379;0,0381;1,1864;1,0964;-1,3653;4,0365;3,0387;0,3629;-0,1503;0,5754;
1,533566;0,0381;1,1864;1,0964;-1,1331;4,3706;5,1518;0,3629;-0,1503;0,5754;
1,550570;0,0381;1,1864;1,0964;-1,1331;4,3706;5,1518;1,3622;0,0440;0,1955;
1,555545;0,0381;1,1864;1,0964;-0,2217;5,4776;5,4634;1,3622;0,0440;0,1955;
1,572370;0,2169;1,3046;1,1688;-0,2217;5,4776;5,4634;1,3622;0,0440;0,1955;
1,576285;0,2169;1,3046;1,1688;0,3142;5,8588;4,6111;1,3622;0,0440;0,1955;
1,592256;0,2169;1,3046;1,1688;0,7138;5,0617;5,7124;1,3622;0,0440;0,1955;
1,612501;0,2169;1,3046;1,1688;0,9737;3,8864;5,9179;1,3622;0,0440;0,1955;
1,616575;0,2169;1,3046;1,1688;0,9737;3,8864;5,9179;2,3030;0,3983;-0,3506;
1,632225;0,2169;1,3046;1,1688;0,8219;3,4761;4,0133;2,3030;0,3983;-0,3506;
1,638123;0,1827;1,1150;0,7114;0,8219;3,4761;4,0133;2,3030;0,3983;-0,3506;
1,653307;0,1827;1,1150;0,7114;0,9663;2,6763;2,4981;2,3030;0,3983;-0,3506;
1,672220;0,1827;1,1150;0,7114;0,3147;2,4615;1,4082;2,3030;0,3983;-0,3506;
1,683218;0,1827;1,1150;0,7114;0,3147;2,4615;1,4082;2,0073;0,4337;-0,6695;
1,692237;0,1827;1,1150;0,7114;1,0111;2,8715;0,6241;2,0073;0,4337;-0,6695;
1,702277;0,1515;0,8981;0,5365;1,0111;2,8715;0,6241;2,0073;0,4337;-0,6695;
1,715898;0,1515;0,8981;0,5365;1,2193;1,0307;1,1967;2,0073;0,4337;-0,6695;
1,732981;0,1515;0,8981;0,5365;0,8108;-1,5039;1,6901;2,0073;0,4337;-0,6695;
1,742277;0,1515;0,8981;0,5365;0,8108;-1,5039;1,6901;1,9035;-0,0098;-0,4581;
1,752467;0,1515;0,8981;0,5365;1,5859;-3,7339;1,1926;1,9035;-0,0098;-0,4581;
1,767347;0,4593;0,3606;0,1505;1,5859;-3,7339;1,1926;1,9035;-0,0098;-0,4581;
1,772152;0,4593;0,3606;0,1505;2,3009;-5,4947;0,3939;1,9035;-0,0098;-0,4581;
1,792266;0,4593;0,3606;0,1505;4,2909;-5,5385;-1,9816;1,9035;-0,0098;-0,4581;
1,807534;0,4593;0,3606;0,1505;4,2909;-5,5385;-1,9816;0,7721;0,4374;-0,6414;
1,812782;0,4593;0,3606;0,1505;4,1642;-7,5157;-4,1203;0,7721;0,4374;-0,6414;
1,832610;0,1837;0,1534;-0,1026;4,1642;-7,5157;-4,1203;0,7721;0,4374;-0,6414;
1,835710;0,1837;0,1534;-0,1026;1,6971;-8,5036;-4,5714;0,7721;0,4374;-0,6414;
1,852567;0,1837;0,1534;-0,1026;0,7599;-8,0259;-2,5957;0,7721;0,4374;-0,6414;
1,872129;0,1837;0,1534;-0,1026;1,6042;-6,3584;-1,3875;0,7721;0,4374;-0,6414;
1,875894;0,1837;0,1534;-0,1026;1,6042;-6,3584;-1,3875;0,3225;0,0012;-0,2517;
1,892420;0,1837;0,1534;-0,1026;0,9752;-5,4920;-2,6406;0,3225;0,0012;-0,2517;
1,901108;0,0704;0,5072;-0,1710;0,9752;-5,4920;-2,6406;0,3225;0,0012;-0,2517;
1,912723;0,0704;0,5072;-0,1710;-0,6972;-4,7624;-2,6601;0,3225;0,0012;-0,2517;
1,932345;0,0704;0,5072;-0,1710;-0,2263;-3,7992;-2,4249;0,3225;0,0012;-0,2517;
1,945604;0,0704;0,5072;-0,1710;-0,2263;-3,7992;-2,4249;-0,1930;-0,4410;0,0855;
1,952271;0,0704;0,5072;-0,1710;0,2203;-2,5591;-1,2809;-0,1930;-0,4410;0,0855;
1,962080;0,3362;0,8560;0,0616;0,2203;-2,5591;-1,2809;-0,1930;-0,4410;0,0855;
1,972184;0,3362;0,8560;0,0616;1,3598;-1,4663;-0,6498;-0,1930;-0,4410;0,0855;
1,994487;0,3362;0,8560;0,0616;2,2636;-0,8788;-0,0490;-0,1930;-0,4410;0,0855;
2,002150;0,3362;0,8560;0,0616;2,2636;-0,8788;-0,0490;0,2224;-0,8222;0,0623;
2,013156;0,3362;0,8560;0,0616;3,4674;-0,1314;0,6621;0,2224;-0,8222;0,0623;
2,028177;0,6499;1,1326;-0,0508;3,4674;-0,1314;0,6621;0,2224;-0,8222;0,0623;
2,033042;0,6499;1,1326;-0,0508;4,4113;0,5921;-0,0883;0,2224;-0,8222;0,0623;
2,052349;0,6499;1,1326;-0,0508;4,2374;1,7446;-1,5787;0,2224;-0,8222;0,0623;
2,067527;0,6499;1,1326;-0,0508;4,2374;1,7446;-1,5787;-0,0550;-1,4465;-0,4557;
2,072032;0,6499;1,1326;-0,0508;3,6166;1,5600;-1,7336;-0,0550;-1,4465;-0,4557;
2,093535;0,5238;1,2088;-0,0039;3,6166;1,5600;-1,7336;-0,0550;-1,4465;-0,4557;
2,098291;0,5238;1,2088;-0,0039;3,2182;2,4810;-0,9171;-0,0550;-1,4465;-0,4557;
2,113768;0,5238;1,2088;-0,0039;3,0784;2,3626;-0,5003;-0,0550;-1,4465;-0,4557;
2,132351;0,5238;1,2088;-0,0039;0,5396;1,1532;1,1358;-0,0550;-1,4465;-0,4557;
2,136326;0,5238;1,2088;-0,0039;0,5396;1,1532;1,1358;-0,3372;-1,6787;-0,9994;
2,152327;0,5238;1,2088;-0,0039;-1,8268;0,6520;3,1301;-0,3372;-1,6787;-0,9994;
2,160070;-0,2941;0,9929;0,4192;-1,8268;0,6520;3,1301;-0,3372;-1,6787;-0,9994;
2,172685;-0,2941;0,9929;0,4192;-4,0017;0,4087;3,6861;-0,3372;-1,6787;-0,9994;
2,193268;-0,2941;0,9929;0,4192;-4,4350;-0,7274;2,2770;-0,3372;-1,6787;-0,9994;
2,200144;-0,2941;0,9929;0,4192;-4,4350;-0,7274;2,2770;-0,3005;-1,2963;-0,8369;
2,212448;-0,2941;0,9929;0,4192;-5,8448;-1,2575;3,0453;-0,3005;-1,2963;-0,8369;
2,221881;-0,6303;0,7427;0,5922;-5,8448;-1,2575;3,0453;-0,3005;-1,2963;-0,8369;
2,232293;-0,6303;0,7427;0,5922;-6,0453;-2,0140;3,9546;-0,3005;-1,2963;-0,8369;
2,252559;-0,6303;0,7427;0,5922;-6,5099;-2,5823;4,6494;-0,3005;-1,2963;-0,8369;
2,262428;-0,6303;0,7427;0,5922;-6,5099;-2,5823;4,6494;0,1405;-0,5596;-0,3506;
2,275748;-0,6303;0,7427;0,5922;-5,7606;-2,6233;3,4908;0,1405;-0,5596;-0,3506;
2,287111;-0,6059;0,5766;0,4427;-5,7606;-2,6233;3,4908;0,1405;-0,5596;-0,3506;
2,294842;-0,6059;0,5766;0,4427;-5,0645;-3,0984;2,8692;0,1405;-0,5596;-0,3506;
2,312394;-0,6059;0,5766;0,4427;-5,0827;-4,1624;2,4676;0,1405;-0,5596;-0,3506;
2,327623;-0,6059;0,5766;0,4427;-5,0827;-4,1624;2,4676;-0,1087;0,3115;0,2896;
2,332360;-0,6059;0,5766;0,4427;-5,1721;-5,0456;2,3548;-0,1087;0,3115;0,2896;
2,352255;-0,4876;0,3684;0,4046;-5,1721;-5,0456;2,3548;-0,1087;0,3115;0,2896;
2,354894;-0,4876;0,3684;0,4046;-4,2764;-5,4694;2,3081;-0,1087;0,3115;0,2896;
2,374003;-0,4876;0,3684;0,4046;-3,4832;-5,8085;1,9593;-0,1087;0,3115;0,2896;
2,392519;-0,4876;0,3684;0,4046;-2,2051;-6,1555;0,0008;-0,1087;0,3115;0,2896;
2,397634;-0,4876;0,3684;0,4046;-2,2051;-6,1555;0,0008;-0,7013;0,9737;0,8430;
2,412518;-0,4876;0,3684;0,4046;-2,3356;-6,6047;-0,7067;-0,7013;0,9737;0,8430;
2,416976;-0,3645;0,2443;0,2619;-2,3356;-6,6047;-0,7067;-0,7013;0,9737;0,8430;
2,432296;-0,3645;0,2443;0,2619;-2,0999;-6,7649;-0,2915;-0,7013;0,9737;0,8430;
2,452446;-0,3645;0,2443;0,2619;-0,9747;-6,6896;0,5434;-0,7013;0,9737;0,8430;
2,462479;-0,3645;0,2443;0,2619;-0,9747;-6,6896;0,5434;-1,2315;1,6261;1,5064;
2,473995;-0,3645;0,2443;0,2619;0,2914;-5,0095;1,0372;-1,2315;1,6261;1,5064;
2,482132;0,1124;0,8287;0,3645;0,2914;-5,0095;1,0372;-1,2315;1,6261;1,5064;
2,492317;0,1124;0,8287;0,3645;1,9161;-2,1810;0,6251;-1,2315;1,6261;1,5064;
2,512413;0,1124;0,8287;0,3645;2,4229;0,3517;-0,4586;-1,2315;1,6261;1,5064;
2,523019;0,1124;0,8287;0,3645;2,4229;0,3517;-0,4586;-1,8167;1,6066;1,5113;
2,532216;0,1124;0,8287;0,3645;3,7228;3,2037;-0,4667;-1,8167;1,6066;1,5113;
2,547134;0,6538;1,6994;0,6557;3,7228;3,2037;-0,4667;-1,8167;1,6066;1,5113;
2,556452;0,6538;1,6994;0,6557;5,9264;6,7760;1,4635;-1,8167;1,6066;1,5113;
2,572805;0,6538;1,6994;0,6557;6,8727;8,0033;2,1427;-1,8167;1,6066;1,5113;
2,589880;0,6538;1,6994;0,6557;6,8727;8,0033;2,1427;-0,8320;0,7624;0,6402;
2,595880;0,6538;1,6994;0,6557;5,6773;7,3385;1,3190;-0,8320;0,7624;0,6402;
2,612281;0,4964;1,4639;0,6372;5,6773;7,3385;1,3190;-0,8320;0,7624;0,6402;
2,615879;0,4964;1,4639;0,6372;5,1108;6,6613;1,5678;-0,8320;0,7624;0,6402;
2,632267;0,4964;1,4639;0,6372;4,6977;5,7374;1,7222;-0,8320;0,7624;0,6402;
2,654003;0,4964;1,4639;0,6372;3,5072;4,3313;0,9396;-0,8320;0,7624;0,6402;
2,659143;0,4964;1,4639;0,6372;3,5072;4,3313;0,9396;-0,1906;0,0354;0,3250;
2,672753;0,4964;1,4639;0,6372;2,9156;3,2467;0,6509;-0,1906;0,0354;0,3250;
2,678419;0,4261;1,1473;0,5746;2,9156;3,2467;0,6509;-0,1906;0,0354;0,3250;
2,692323;0,4261;1,1473;0,5746;3,5592;2,8243;1,0713;-0,1906;0,0354;0,3250;
2,712492;0,4261;1,1473;0,5746;3,1514;2,0473;0,7313;-0,1906;0,0354;0,3250;
2,720623;0,4261;1,1473;0,5746;3,1514;2,0473;0,7313;-0,0733;-0,0880;0,0867;
2,732235;0,4261;1,1473;0,5746;2,2893;1,3275;0,1738;-0,0733;-0,0880;0,0867;
2,742447;0,2932;0,9753;0,5600;2,2893;1,3275;0,1738;-0,0733;-0,0880;0,0867;
2,753659;0,2932;0,9753;0,5600;1,9085;1,0859;0,5876;-0,0733;-0,0880;0,0867;
2,772298;0,2932;0,9753;0,5600;2,1002;0,7080;1,0210;-0,0733;-0,0880;0,0867;
2,782390;0,2932;0,9753;0,5600;2,1002;0,7080;1,0210;0,1759;-0,2065;-0,1283;
2,792329;0,2932;0,9753;0,5600;1,6713;0,1902;0,4355;0,1759;-0,2065;-0,1283;
2,807102;0,1945;0,8912;0,4642;1,6713;0,1902;0,4355;0,1759;-0,2065;-0,1283;
2,812348;0,1945;0,8912;0,4642;1,4770;0,1470;-0,0309;0,1759;-0,2065;-0,1283;
2,835380;0,1945;0,8912;0,4642;0,6969;0,0112;0,1333;0,1759;-0,2065;-0,1283;
2,847649;0,1945;0,8912;0,4642;0,6969;0,0112;0,1333;0,0757;-0,3323;-0,1283;
2,854780;0,1945;0,8912;0,4642;0,2562;-0,1928;0,2000;0,0757;-0,3323;-0,1283;
2,872241;0,2726;0,9508;0,5248;0,2562;-0,1928;0,2000;0,0757;-0,3323;-0,1283;
2,876557;0,2726;0,9508;0,5248;1,2663;0,4082;0,5625;0,0757;-0,3323;-0,1283;
2,892261;0,2726;0,9508;0,5248;1,5251;0,7329;0,7353;0,0757;-0,3323;-0,1283;
2,912452;0,2726;0,9508;0,5248;1,0875;0,6067;1,0037;0,0757;-0,3323;-0,1283;
2,918161;0,2726;0,9508;0,5248;1,0875;0,6067;1,0037;-0,0452;-0,1637;-0,3653;
2,934499;0,2726;0,9508;0,5248;1,0444;0,3868;0,5877;-0,0452;-0,1637;-0,3653;
2,940337;0,1055;0,8355;0,4915;1,0444;0,3868;0,5877;-0,0452;-0,1637;-0,3653;
2,952363;0,1055;0,8355;0,4915;0,1437;-0,1842;0,3970;-0,0452;-0,1637;-0,3653;
2,972104;0,1055;0,8355;0,4915;-0,4455;-0,8055;0,2544;-0,0452;-0,1637;-0,3653;
2,979590;0,1055;0,8355;0,4915;-0,4455;-0,8055;0,2544;0,1686;-0,3934;-0,2468;
2,992199;0,1055;0,8355;0,4915;-0,4040;-0,6978;0,4125;0,1686;-0,3934;-0,2468;
3,001955;-0,0459;0,7271;0,4290;-0,4040;-0,6978;0,4125;0,1686;-0,3934;-0,2468;
3,012358;-0,0459;0,7271;0,4290;-1,2929;-1,3890;-0,0781;0,1686;-0,3934;-0,2468;
3,032830;-0,0459;0,7271;0,4290;-1,3198;-1,4343;-0,4597;0,1686;-0,3934;-0,2468;
3,042079;-0,0459;0,7271;0,4290;-1,3198;-1,4343;-0,4597;0,0513;-0,4044;-0,0489;
3,052371;-0,0459;0,7271;0,4290;-0,5543;-1,1299;-0,6208;0,0513;-0,4044;-0,0489;
3,067699;0,1055;0,7456;0,4319;-0,5543;-1,1299;-0,6208;0,0513;-0,4044;-0,0489;
3,072066;0,1055;0,7456;0,4319;-0,0593;-0,8899;-0,3774;0,0513;-0,4044;-0,0489;
3,092217;0,1055;0,7456;0,4319;0,1050;-1,3861;-0,2858;0,0513;-0,4044;-0,0489;
3,107328;0,1055;0,7456;0,4319;0,1050;-1,3861;-0,2858;0,2663;-0,4032;0,0904;
3,116022;0,1055;0,7456;0,4319;0,6219;-1,6968;-0,4483;0,2663;-0,4032;0,0904;
3,132497;0,3411;0,7114;0,3196;0,6219;-1,6968;-0,4483;0,2663;-0,4032;0,0904;
3,137483;0,3411;0,7114;0,3196;1,8586;-1,4999;-0,7040;0,2663;-0,4032;0,0904;
3,153007;0,3411;0,7114;0,3196;1,8533;-1,6272;-1,1596;0,2663;-0,4032;0,0904;
3,172262;0,3411;0,7114;0,3196;1,5753;-1,3939;-1,4247;0,2663;-0,4032;0,0904;
3,175822;0,3411;0,7114;0,3196;1,5753;-1,3939;-1,4247;-0,4862;-0,5205;-0,1271;
3,192228;0,3411;0,7114;0,3196;2,4108;-0,8207;-0,4526;-0,4862;-0,5205;-0,1271;
3,197895;0,2541;0,8023;0,4740;2,4108;-0,8207;-0,4526;-0,4862;-0,5205;-0,1271;
3,214871;0,2541;0,8023;0,4740;1,1296;-0,6386;0,1709;-0,4862;-0,5205;-0,1271;
3,232207;0,2541;0,8023;0,4740;0,5018;0,0418;0,6444;-0,4862;-0,5205;-0,1271;
3,239613;0,2541;0,8023;0,4740;0,5018;0,0418;0,6444;-0,4581;-0,7575;-0,2517;
3,252337;0,2541;0,8023;0,4740;-0,4632;-0,1221;0,0949;-0,4581;-0,7575;-0,2517;
3,264372;-0,0713;0,8893;0,5150;-0,4632;-0,1221;0,0949;-0,4581;-0,7575;-0,2517;
3,272118;-0,0713;0,8893;0,5150;-2,3476;0,0966;0,1398;-0,4581;-0,7575;-0,2517;
3,292217;-0,0713;0,8893;0,5150;-2,0224;0,7053;0,4921;-0,4581;-0,7575;-0,2517;
3,302625;-0,0713;0,8893;0,5150;-2,0224;0,7053;0,4921;-0,6096;-0,5596;-0,1454;
3,313698;-0,0713;0,8893;0,5150;-1,2842;1,3739;0,7027;-0,6096;-0,5596;-0,1454;
3,330234;-0,0665;1,0486;0,7788;-1,2842;1,3739;0,7027;-0,6096;-0,5596;-0,1454;
3,336232;-0,0665;1,0486;0,7788;-2,0891;1,7910;2,3435;-0,6096;-0,5596;-0,1454;
3,352316;-0,0665;1,0486;0,7788;-2,2169;1,8790;2,3773;-0,6096;-0,5596;-0,1454;
3,368048;-0,0665;1,0486;0,7788;-2,2169;1,8790;2,3773;0,2957;-0,2040;-0,0806;
3,373016;-0,0665;1,0486;0,7788;-2,5501;1,5632;0,7731;0,2957;-0,2040;-0,0806;
3,392044;0,0713;0,9977;0,6420;-2,5501;1,5632;0,7731;0,2957;-0,2040;-0,0806;
3,396160;0,0713;0,9977;0,6420;-1,3498;1,6576;1,4200;0,2957;-0,2040;-0,0806;
3,412480;0,0713;0,9977;0,6420;-0,6589;1,3986;1,5606;0,2957;-0,2040;-0,0806;
3,432452;0,0713;0,9977;0,6420;-0,8418;0,6218;-0,0350;0,2957;-0,2040;-0,0806;
3,437231;0,0713;0,9977;0,6420;-0,8418;0,6218;-0,0350;0,5046;0,6084;-0,1967;
3,452410;0,0713;0,9977;0,6420;-0,9894;0,5448;-0,5229;0,5046;0,6084;-0,1967;
3,457254;0,0498;0,9196;0,3694;-0,9894;0,5448;-0,5229;0,5046;0,6084;-0,1967;
3,472314;0,0498;0,9196;0,3694;-0,6084;0,5081;-0,8245;0,5046;0,6084;-0,1967;
3,496619;0,0498;0,9196;0,3694;-0,4442;-0,0881;-0,3711;0,5046;0,6084;-0,1967;
3,506263;0,0498;0,9196;0,3694;-0,4442;-0,0881;-0,3711;0,5791;0,2150;-0,3433;
3,518111;0,0498;0,9196;0,3694;-0,1201;-0,5598;-0,7730;0,5791;0,2150;-0,3433;
3,525850;0,0801;0,8326;0,3391;-0,1201;-0,5598;-0,7730;0,5791;0,2150;-0,3433;
3,532131;0,0801;0,8326;0,3391;0,0910;-0,5374;-0,7031;0,5791;0,2150;-0,3433;
3,552133;0,0801;0,8326;0,3391;0,0149;-0,8070;-1,1531;0,5791;0,2150;-0,3433;
3,562589;0,0801;0,8326;0,3391;0,0149;-0,8070;-1,1531;-0,1271;0,5388;-0,4655;
3,572122;0,0801;0,8326;0,3391;-0,3161;-0,6259;-1,8175;-0,1271;0,5388;-0,4655;
3,587158;0,0557;0,9147;0,3958;-0,3161;-0,6259;-1,8175;-0,1271;0,5388;-0,4655;
3,593851;0,0557;0,9147;0,3958;0,2814;-0,1574;-1,3858;-0,1271;0,5388;-0,4655;
3,613453;0,0557;0,9147;0,3958;-0,0141;-0,0206;0,1098;-0,1271;0,5388;-0,4655;
3,631740;0,0557;0,9147;0,3958;-0,0141;-0,0206;0,1098;-0,2529;0,1442;-0,1918;
3,639746;0,0557;0,9147;0,3958;-0,9001;-0,3773;-0,4427;-0,2529;0,1442;-0,1918;
3,651894;0,0694;0,9254;0,5336;-0,9001;-0,3773;-0,4427;-0,2529;0,1442;-0,1918;
3,654671;0,0694;0,9254;0,5336;-0,1607;0,0328;0,4368;-0,2529;0,1442;-0,1918;
3,671807;0,0694;0,9254;0,5336;0,5153;0,2349;1,1727;-0,2529;0,1442;-0,1918;
3,691930;0,0694;0,9254;0,5336;0,2806;0,2252;0,3074;-0,2529;0,1442;-0,1918;
3,696072;0,0694;0,9254;0,5336;0,2806;0,2252;0,3074;-0,3372;0,0794;0,0330;
3,712055;0,0694;0,9254;0,5336;0,9895;0,4227;-0,0877;-0,3372;0,0794;0,0330;
3,716641;0,1358;0,9626;0,6303;0,9895;0,4227;-0,0877;-0,3372;0,0794;0,0330;
3,732104;0,1358;0,9626;0,6303;1,3471;0,7409;1,3892;-0,3372;0,0794;0,0330;
3,752130;0,1358;0,9626;0,6303;0,6122;0,4077;2,4252;-0,3372;0,0794;0,0330;
3,759107;0,1358;0,9626;0,6303;0,6122;0,4077;2,4252;0,0831;0,0648;0,0965;
3,774437;0,1358;0,9626;0,6303;0,7530;0,5746;2,1115;0,0831;0,0648;0,0965;
3,782230;0,1309;0,9088;0,5433;0,7530;0,5746;2,1115;0,0831;0,0648;0,0965;
3,792190;0,1309;0,9088;0,5433;1,1121;0,4140;1,0845;0,0831;0,0648;0,0965;
3,813470;0,1309;0,9088;0,5433;0,7748;-0,0731;0,4988;0,0831;0,0648;0,0965;
3,824471;0,1309;0,9088;0,5433;0,7748;-0,0731;0,4988;0,0794;0,0195;0,0171;
3,832828;0,1309;0,9088;0,5433;0,5265;-0,3190;-0,4578;0,0794;0,0195;0,0171;
3,849714;0,0782;0,8482;0,3440;0,5265;-0,3190;-0,4578;0,0794;0,0195;0,0171;
3,859953;0,0782;0,8482;0,3440;0,6212;-0,3983;-1,0638;0,0794;0,0195;0,0171;
3,872787;0,0782;0,8482;0,3440;0,3695;-0,4403;-0,7511;0,0794;0,0195;0,0171;
3,888101;0,0782;0,8482;0,3440;0,3695;-0,4403;-0,7511;-0,0342;-0,0611;0,0257;
3,891835;0,0782;0,8482;0,3440;0,0560;-0,4645;0,0227;-0,0342;-0,0611;0,0257;
3,911936;0,0156;0,8873;0,4661;0,0560;-0,4645;0,0227;-0,0342;-0,0611;0,0257;
3,913934;0,0156;0,8873;0,4661;-0,1518;-0,3386;-0,0426;-0,0342;-0,0611;0,0257;
3,931882;0,0156;0,8873;0,4661;-0,2384;-0,0008;0,2344;-0,0342;-0,0611;0,0257;
3,951966;0,0156;0,8873;0,4661;-0,1375;0,2825;0,5117;-0,0342;-0,0611;0,0257;
3,955217;0,0156;0,8873;0,4661;-0,1375;0,2825;0,5117;-0,0318;-0,0037;0,0000;
3,971846;0,0156;0,8873;0,4661;0,2344;0,5202;0,7325;-0,0318;-0,0037;0,0000;
3,976945;0,0205;0,9059;0,5042;0,2344;0,5202;0,7325;-0,0318;-0,0037;0,0000;
3,991839;0,0205;0,9059;0,5042;-0,0939;0,2990;0,5661;-0,0318;-0,0037;0,0000;
4,012111;0,0205;0,9059;0,5042;-0,2991;-0,0012;0,1179;-0,0318;-0,0037;0,0000;
4,020552;0,0205;0,9059;0,5042;-0,2991;-0,0012;0,1179;0,0623;-0,0904;0,0867;
4,032058;0,0205;0,9059;0,5042;-0,2139;-0,0724;-0,2102;0,0623;-0,0904;0,0867;
4,041752;0,0625;0,8942;0,4290;-0,2139;-0,0724;-0,2102;0,0623;-0,0904;0,0867;
4,052894;0,0625;0,8942;0,4290;0,2721;0,0891;-0,0909;0,0623;-0,0904;0,0867;
4,071836;0,0625;0,8942;0,4290;-0,0268;0,0637;-0,1671;0,0623;-0,0904;0,0867;
4,081960;0,0625;0,8942;0,4290;-0,0268;0,0637;-0,1671;0,0367;-0,0220;0,1148;
4,092055;0,0625;0,8942;0,4290;-0,3092;-0,0140;0,0686;0,0367;-0,0220;0,1148;
4,106863;0,0811;0,9137;0,4681;-0,3092;-0,0140;0,0686;0,0367;-0,0220;0,1148;
4,112121;0,0811;0,9137;0,4681;-0,1398;0,1441;0,2638;0,0367;-0,0220;0,1148;
4,132320;0,0811;0,9137;0,4681;0,5032;0,3238;0,2001;0,0367;-0,0220;0,1148;
4,147393;0,0811;0,9137;0,4681;0,5032;0,3238;0,2001;-0,1112;0,0916;-0,0367;
4,153450;0,0811;0,9137;0,4681;0,3979;0,3695;-0,3697;-0,1112;0,0916;-0,0367;
4,173237;0,0450;0,8844;0,4915;0,3979;0,3695;-0,3697;-0,1112;0,0916;-0,0367;
4,181797;0,0450;0,8844;0,4915;-0,2482;-0,0438;0,0635;-0,1112;0,0916;-0,0367;
4,193308;0,0450;0,8844;0,4915;-0,0389;-0,0216;0,4806;-0,1112;0,0916;-0,0367;
4,213051;0,0450;0,8844;0,4915;0,2811;0,0865;0,0597;-0,1112;0,0916;-0,0367;
4,222971;0,0450;0,8844;0,4915;0,2811;0,0865;0,0597;0,0073;-0,0061;0,0049;
4,231783;0,0450;0,8844;0,4915;0,2061;0,0465;-0,0053;0,0073;-0,0061;0,0049;
4,237394;0,0557;0,8844;0,4632;0,2061;0,0465;-0,0053;0,0073;-0,0061;0,0049;
4,252073;0,0557;0,8844;0,4632;0,1233;-0,0302;0,1573;0,0073;-0,0061;0,0049;
4,271858;0,0557;0,8844;0,4632;-0,1442;-0,1277;0,2827;0,0073;-0,0061;0,0049;
4,278931;0,0557;0,8844;0,4632;-0,1442;-0,1277;0,2827;0,0379;-0,0305;0,0745;
4,291884;0,0557;0,8844;0,4632;-0,3342;-0,1878;0,0220;0,0379;-0,0305;0,0745;
4,301687;0,0469;0,8775;0,4642;-0,3342;-0,1878;0,0220;0,0379;-0,0305;0,0745;
4,312222;0,0469;0,8775;0,4642;-0,1109;-0,1098;-0,0442;0,0379;-0,0305;0,0745;
4,332147;0,0469;0,8775;0,4642;-0,0696;-0,0725;0,2460;0,0379;-0,0305;0,0745;
4,342190;0,0469;0,8775;0,4642;-0,0696;-0,0725;0,2460;-0,0171;-0,0367;0,0586;
4,352282;0,0469;0,8775;0,4642;0,1413;0,0542;0,0053;-0,0171;-0,0367;0,0586;
4,367501;0,0342;0,8961;0,4525;0,1413;0,0542;0,0053;-0,0171;-0,0367;0,0586;
4,373324;0,0342;0,8961;0,4525;0,0668;0,0850;-0,1033;-0,0171;-0,0367;0,0586;
4,393033;0,0342;0,8961;0,4525;-0,3367;0,0480;0,0494;-0,0171;-0,0367;0,0586;
4,410306;0,0342;0,8961;0,4525;-0,3367;0,0480;0,0494;0,1454;-0,5363;0,0049;
4,416163;0,0342;0,8961;0,4525;-0,1282;0,1457;0,3411;0,1454;-0,5363;0,0049;
4,433279;0,0166;0,9186;0,4456;-0,1282;0,1457;0,3411;0,1454;-0,5363;0,0049;
4,441417;0,0166;0,9186;0,4456;0,2416;0,5219;0,3616;0,1454;-0,5363;0,0049;
4,453242;0,0166;0,9186;0,4456;-0,5306;0,3034;0,0754;0,1454;-0,5363;0,0049;
4,473092;0,0166;0,9186;0,4456;-0,6515;0,3864;0,8774;0,1454;-0,5363;0,0049;
4,484469;0,0166;0,9186;0,4456;-0,6515;0,3864;0,8774;0,0403;-0,4191;0,2211;
4,493084;0,0166;0,9186;0,4456;-0,7172;0,9931;0,8924;0,0403;-0,4191;0,2211;
4,503883;-0,0498;0,9215;0,5336;-0,7172;0,9931;0,8924;0,0403;-0,4191;0,2211;
4,512203;-0,0498;0,9215;0,5336;-1,5942;0,5111;0,7111;0,0403;-0,4191;0,2211;
4,531980;-0,0498;0,9215;0,5336;-0,6673;0,9802;0,3513;0,0403;-0,4191;0,2211;
4,538937;-0,0498;0,9215;0,5336;-0,6673;0,9802;0,3513;-0,2737;-0,7416;1,1655;
4,551870;-0,0498;0,9215;0,5336;-0,9867;2,0609;0,7044;-0,2737;-0,7416;1,1655;
4,561636;0,2424;1,1580;0,7192;-0,9867;2,0609;0,7044;-0,2737;-0,7416;1,1655;
4,571956;0,2424;1,1580;0,7192;0,7283;2,4478;2,5178;-0,2737;-0,7416;1,1655;
4,591910;0,2424;1,1580;0,7192;-0,0694;3,6564;2,0679;-0,2737;-0,7416;1,1655;
4,601978;0,2424;1,1580;0,7192;-0,0694;3,6564;2,0679;0,3421;0,5754;0,3690;
4,613334;0,2424;1,1580;0,7192;-2,1915;4,3173;2,4795;0,3421;0,5754;0,3690;
4,626971;-0,0440;1,4873;0,8394;-2,1915;4,3173;2,4795;0,3421;0,5754;0,3690;
4,631976;-0,0440;1,4873;0,8394;-2,0550;5,4292;3,4411;0,3421;0,5754;0,3690;
4,652035;-0,0440;1,4873;0,8394;-1,6858;6,0573;4,0029;0,3421;0,5754;0,3690;
4,667218;-0,0440;1,4873;0,8394;-1,6858;6,0573;4,0029;1,7483;0,2932;-0,0476;
4,671927;-0,0440;1,4873;0,8394;-1,1139;6,0467;5,3902;1,7483;0,2932;-0,0476;
4,692079;0,0860;1,4219;0,6831;-1,1139;6,0467;5,3902;1,7483;0,2932;-0,0476;
4,696177;0,0860;1,4219;0,6831;0,3254;6,1482;4,3061;1,7483;0,2932;-0,0476;
4,713329;0,0860;1,4219;0,6831;-0,1212;4,9732;3,0393;1,7483;0,2932;-0,0476;
4,733006;0,0860;1,4219;0,6831;-0,7287;3,5816;3,9808;1,7483;0,2932;-0,0476;
4,739417;0,0860;1,4219;0,6831;-0,7287;3,5816;3,9808;1,8473;0,6341;-0,3274;
4,753731;0,0860;1,4219;0,6831;0,5998;2,0887;4,5099;1,8473;0,6341;-0,3274;
4,765296;0,1642;0,8746;0,5433;0,5998;2,0887;4,5099;1,8473;0,6341;-0,3274;
4,773980;0,1642;0,8746;0,5433;0,9185;-0,2892;3,2066;1,8473;0,6341;-0,3274;
4,791847;0,1642;0,8746;0,5433;0,4848;-0,9894;0,5095;1,8473;0,6341;-0,3274;
4,799552;0,1642;0,8746;0,5433;0,4848;-0,9894;0,5095;1,8570;0,7343;-0,0806;
4,812342;0,1642;0,8746;0,5433;0,5286;-2,9305;1,6012;1,8570;0,7343;-0,0806;
4,821596;0,2668;0,4857;0,2941;0,5286;-2,9305;1,6012;1,8570;0,7343;-0,0806;
4,831835;0,2668;0,4857;0,2941;1,2685;-4,2125;1,3174;1,8570;0,7343;-0,0806;
4,852148;0,2668;0,4857;0,2941;2,5048;-5,1305;-0,0136;1,8570;0,7343;-0,0806;
4,861973;0,2668;0,4857;0,2941;2,5048;-5,1305;-0,0136;1,5528;0,6267;0,1417;
4,872018;0,2668;0,4857;0,2941;2,9945;-6,0870;-1,6663;1,5528;0,6267;0,1417;
4,886754;0,6401;0,2971;-0,4075;2,9945;-6,0870;-1,6663;1,5528;0,6267;0,1417;
4,893599;0,6401;0,2971;-0,4075;4,8939;-6,3755;-3,7512;1,5528;0,6267;0,1417;
4,912644;0,6401;0,2971;-0,4075;4,3011;-6,7697;-4,7451;1,5528;0,6267;0,1417;
4,927482;0,6401;0,2971;-0,4075;4,3011;-6,7697;-4,7451;0,5693;-0,2150;-0,0244;
4,933297;0,6401;0,2971;-0,4075;3,3242;-7,3461;-4,4120;0,5693;-0,2150;-0,0244;
4,952958;0,6782;0,2785;-0,3880;3,3242;-7,3461;-4,4120;0,5693;-0,2150;-0,0244;
4,959930;0,6782;0,2785;-0,3880;3,6846;-7,0277;-3,3443;0,5693;-0,2150;-0,0244;
4,973664;0,6782;0,2785;-0,3880;4,3944;-6,7230;-3,5950;0,5693;-0,2150;-0,0244;
4,996497;0,6782;0,2785;-0,3880;4,4549;-5,6321;-3,4126;0,5693;-0,2150;-0,0244;
5,005366;0,6782;0,2785;-0,3880;4,4549;-5,6321;-3,4126;-0,2651;-0,5803;0,0171;
5,019487;0,6782;0,2785;-0,3880;4,4092;-4,2220;-3,1474;-0,2651;-0,5803;0,0171;
5,033208;0,7222;0,7271;-0,2042;4,4092;-4,2220;-3,1474;-0,2651;-0,5803;0,0171;
5,035970;0,7222;0,7271;-0,2042;4,0200;-2,4446;-1,6645;-0,2651;-0,5803;0,0171;
5,052223;0,7222;0,7271;-0,2042;3,8690;-1,0016;-0,3255;-0,2651;-0,5803;0,0171;
5,060104;0,7222;0,7271;-0,2042;3,8690;-1,0016;-0,3255;0,0855;-1,9035;-0,1710;
5,072192;0,7222;0,7271;-0,2042;4,1120;0,1926;-1,3583;0,0855;-1,9035;-0,1710;
5,082254;0,5521;1,1140;-0,0938;4,1120;0,1926;-1,3583;0,0855;-1,9035;-0,1710;
5,092146;0,5521;1,1140;-0,0938;3,2946;1,6359;-0,9542;0,0855;-1,9035;-0,1710;
5,113953;0,5521;1,1140;-0,0938;1,4878;1,5822;1,2396;0,0855;-1,9035;-0,1710;
5,126855;0,5521;1,1140;-0,0938;1,4878;1,5822;1,2396;-0,2419;-1,9902;-0,5852;
5,136090;0,5521;1,1140;-0,0938;-0,6886;1,6505;2,8256;-0,2419;-1,9902;-0,5852;
5,146790;-0,1730;1,1160;0,2609;-0,6886;1,6505;2,8256;-0,2419;-1,9902;-0,5852;
5,151941;-0,1730;1,1160;0,2609;-2,2145;1,6054;3,3750;-0,2419;-1,9902;-0,5852;
5,172048;-0,1730;1,1160;0,2609;-4,6665;1,5721;3,4567;-0,2419;-1,9902;-0,5852;
5,187011;-0,1730;1,1160;0,2609;-4,6665;1,5721;3,4567;-0,6109;-1,3757;-0,7001;
5,191870;-0,1730;1,1160;0,2609;-5,3170;1,0765;3,1071;-0,6109;-1,3757;-0,7001;
5,211933;-0,4515;1,0290;0,5082;-5,3170;1,0765;3,1071;-0,6109;-1,3757;-0,7001;
5,215194;-0,4515;1,0290;0,5082;-6,1742;0,5721;5,0601;-0,6109;-1,3757;-0,7001;
5,231941;-0,4515;1,0290;0,5082;-5,6157;0,4428;5,1845;-0,6109;-1,3757;-0,7001;
5,252413;-0,4515;1,0290;0,5082;-6,4641;-0,0932;3,9362;-0,6109;-1,3757;-0,7001;
5,258727;-0,4515;1,0290;0,5082;-6,4641;-0,0932;3,9362;-0,2615;-0,3286;-0,5620;
5,274824;-0,4515;1,0290;0,5082;-6,5793;-1,1913;3,2361;-0,2615;-0,3286;-0,5620;
5,283454;-0,6665;0,7632;0,3029;-6,5793;-1,1913;3,2361;-0,2615;-0,3286;-0,5620;
5,292354;-0,6665;0,7632;0,3029;-6,9730;-2,1156;3,1160;-0,2615;-0,3286;-0,5620;
5,313392;-0,6665;0,7632;0,3029;-6,0371;-2,7028;1,9602;-0,2615;-0,3286;-0,5620;
5,325073;-0,6665;0,7632;0,3029;-6,0371;-2,7028;1,9602;0,1234;0,0037;0,0550;
5,333477;-0,6665;0,7632;0,3029;-5,6828;-3,4994;1,9488;0,1234;0,0037;0,0550;
5,345312;-0,4857;0,5600;0,1163;-5,6828;-3,4994;1,9488;0,1234;0,0037;0,0550;
5,358010;-0,4857;0,5600;0,1163;-4,3154;-3,9546;1,2154;0,1234;0,0037;0,0550;
5,374954;-0,4857;0,5600;0,1163;-3,8443;-4,5875;0,2868;0,1234;0,0037;0,0550;
5,386681;-0,4857;0,5600;0,1163;-3,8443;-4,5875;0,2868;-0,3763;0,7159;0,4484;
5,395856;-0,4857;0,5600;0,1163;-2,9055;-5,1468;-0,3785;-0,3763;0,7159;0,4484;
5,408442;-0,3127;0,3821;0,0059;-2,9055;-5,1468;-0,3785;-0,3763;0,7159;0,4484;
5,416304;-0,3127;0,3821;0,0059;-2,5754;-5,5649;-0,1081;-0,3763;0,7159;0,4484;
5,432174;-0,3127;0,3821;0,0059;-1,7433;-5,9929;-0,4865;-0,3763;0,7159;0,4484;
5,446919;-0,3127;0,3821;0,0059;-1,7433;-5,9929;-0,4865;-0,9456;1,0226;0,6267;
5,453054;-0,3127;0,3821;0,0059;-1,2604;-6,3001;0,4620;-0,9456;1,0226;0,6267;
5,471962;-0,3479;0,3391;0,2687;-1,2604;-6,3001;0,4620;-0,9456;1,0226;0,6267;
5,474084;-0,3479;0,3391;0,2687;-1,2656;-6,3657;1,2497;-0,9456;1,0226;0,6267;
5,491935;-0,3479;0,3391;0,2687;-2,2981;-6,2413;1,2752;-0,9456;1,0226;0,6267;
5,512116;-0,3479;0,3391;0,2687;-1,5512;-5,1103;1,3436;-0,9456;1,0226;0,6267;
5,515391;-0,3479;0,3391;0,2687;-1,5512;-5,1103;1,3436;-1,3048;1,6066;1,3146;
5,532256;-0,3479;0,3391;0,2687;0,3507;-3,2094;3,5457;-1,3048;1,6066;1,3146;
5,536825;-0,0020;0,7554;0,4945;0,3507;-3,2094;3,5457;-1,3048;1,6066;1,3146;
5,553323;-0,0020;0,7554;0,4945;0,7469;-2,1347;2,9560;-1,3048;1,6066;1,3146;
5,573071;-0,0020;0,7554;0,4945;1,4208;-0,1778;0,3773;-1,3048;1,6066;1,3146;
5,579593;-0,0020;0,7554;0,4945;1,4208;-0,1778;0,3773;-1,3598;1,7422;1,4759;
5,593529;-0,0020;0,7554;0,4945;4,7447;3,0394;0,6289;-1,3598;1,7422;1,4759;
5,606805;0,6616;1,5313;0,2726;4,7447;3,0394;0,6289;-1,3598;1,7422;1,4759;
5,612882;0,6616;1,5313;0,2726;5,7978;5,1226;-0,0787;-1,3598;1,7422;1,4759;
5,631935;0,6616;1,5313;0,2726;6,8405;6,5920;-0,5075;-1,3598;1,7422;1,4759;
5,642179;0,6616;1,5313;0,2726;6,8405;6,5920;-0,5075;-0,7611;0,5925;0,9432;
5,652013;0,6616;1,5313;0,2726;8,8323;7,8484;0,2124;-0,7611;0,5925;0,9432;
5,667221;1,0466;1,7043;0,2541;8,8323;7,8484;0,2124;-0,7611;0,5925;0,9432;
5,672011;1,0466;1,7043;0,2541;9,4617;7,9841;-1,0689;-0,7611;0,5925;0,9432;
5,691874;1,0466;1,7043;0,2541;8,9887;7,3720;-0,6679;-0,7611;0,5925;0,9432;
5,707187;1,0466;1,7043;0,2541;8,9887;7,3720;-0,6679;-0,4386;-0,2590;-0,1063;
5,712009;1,0466;1,7043;0,2541;8,0434;6,4017;1,4959;-0,4386;-0,2590;-0,1063;
5,731903;0,5932;1,2948;0,5336;8,0434;6,4017;1,4959;-0,4386;-0,2590;-0,1063;
5,735724;0,5932;1,2948;0,5336;6,6900;5,2565;1,7683;-0,4386;-0,2590;-0,1063;
5,752329;0,5932;1,2948;0,5336;4,2995;3,8632;1,4370;-0,4386;-0,2590;-0,1063;
5,773242;0,5932;1,2948;0,5336;2,7563;2,3408;1,5988;-0,4386;-0,2590;-0,1063;
5,783848;0,5932;1,2948;0,5336;2,7563;2,3408;1,5988;0,1246;-0,7477;-0,0843;
5,792869;0,5932;1,2948;0,5336;2,3851;1,5596;1,2628;0,1246;-0,7477;-0,0843;
5,802748;0,4173;0,9870;0,4700;2,3851;1,5596;1,2628;0,1246;-0,7477;-0,0843;
5,812104;0,4173;0,9870;0,4700;2,5021;1,0691;0,9702;0,1246;-0,7477;-0,0843;
5,831952;0,4173;0,9870;0,4700;1,5300;0,0098;0,7952;0,1246;-0,7477;-0,0843;
5,839112;0,4173;0,9870;0,4700;1,5300;0,0098;0,7952;0,3580;-0,9322;-0,2590;
5,851828;0,4173;0,9870;0,4700;0,9278;-1,1894;0,6303;0,3580;-0,9322;-0,2590;
5,861615;0,1769;0,6372;0,3391;0,9278;-1,1894;0,6303;0,3580;-0,9322;-0,2590;
5,871873;0,1769;0,6372;0,3391;0,5194;-2,0089;0,4992;0,3580;-0,9322;-0,2590;
5,892386;0,1769;0,6372;0,3391;-0,9047;-3,1720;-1,1151;0,3580;-0,9322;-0,2590;
5,902761;0,1769;0,6372;0,3391;-0,9047;-3,1720;-1,1151;0,2334;-0,5705;-0,0843;
5,912430;0,1769;0,6372;0,3391;-0,8669;-3,1754;-2,1659;0,2334;-0,5705;-0,0843;
5,928434;0,2287;0,6049;0,2365;-0,8669;-3,1754;-2,1659;0,2334;-0,5705;-0,0843;
5,935911;0,2287;0,6049;0,2365;0,3220;-3,1939;-2,1297;0,2334;-0,5705;-0,0843;
5,952922;0,2287;0,6049;0,2365;-0,2329;-2,9214;-0,6420;0,2334;-0,5705;-0,0843;
5,969790;0,2287;0,6049;0,2365;-0,2329;-2,9214;-0,6420;-0,4191;0,2615;0,1002;
5,977137;0,2287;0,6049;0,2365;-2,0683;-2,6609;0,1154;-0,4191;0,2615;0,1002;
5,993707;0,2629;0,9997;0,1036;-2,0683;-2,6609;0,1154;-0,4191;0,2615;0,1002;
6,002164;0,2629;0,9997;0,1036;-0,4571;-0,8536;-0,4680;-0,4191;0,2615;0,1002;
6,017105;0,2629;0,9997;0,1036;0,7513;0,9921;-2,6694;-0,4191;0,2615;0,1002;
6,035980;0,2629;0,9997;0,1036;-1,2496;1,6279;-0,3426;-0,4191;0,2615;0,1002;
6,045479;0,2629;0,9997;0,1036;-1,2496;1,6279;-0,3426;-1,1900;0,1503;-0,6243;
6,052362;0,2629;0,9997;0,1036;-2,7556;1,5972;3,7296;-1,1900;0,1503;-0,6243;
6,056891;-0,0938;1,6652;1,0144;-2,7556;1,5972;3,7296;-1,1900;0,1503;-0,6243;
6,071881;-0,0938;1,6652;1,0144;-3,5713;6,2185;4,0106;-1,1900;0,1503;-0,6243;
6,091901;-0,0938;1,6652;1,0144;4,2771;4,6156;12,4110;-1,1900;0,1503;-0,6243;
6,099133;-0,0938;1,6652;1,0144;4,2771;4,6156;12,4110;0,3482;0,6610;-0,9358;
6,112467;-0,0938;1,6652;1,0144;1,1350;-1,3434;1,1424;0,3482;0,6610;-0,9358;
6,121689;-0,0352;0,6000;-0,0274;1,1350;-1,3434;1,1424;0,3482;0,6610;-0,9358;
6,132073;-0,0352;0,6000;-0,0274;-1,0805;-2,5293;-5,7769;0,3482;0,6610;-0,9358;
6,152192;-0,0352;0,6000;-0,0274;-1,0804;-2,8264;-1,8225;0,3482;0,6610;-0,9358;
6,162422;-0,0352;0,6000;-0,0274;-1,0804;-2,8264;-1,8225;0,1100;-0,7440;0,1503;
6,172624;-0,0352;0,6000;-0,0274;-0,7806;-2,1136;2,0687;0,1100;-0,7440;0,1503;
6,187366;0,2326;0,8736;0,6948;-0,7806;-2,1136;2,0687;0,1100;-0,7440;0,1503;
6,192440;0,2326;0,8736;0,6948;0,6798;-0,5740;2,5960;0,1100;-0,7440;0,1503;
6,213399;0,2326;0,8736;0,6948;1,3407;-0,0284;2,3150;0,1100;-0,7440;0,1503;
6,231805;0,2326;0,8736;0,6948;1,3407;-0,0284;2,3150;0,3140;0,0391;0,1332;
6,240327;0,2326;0,8736;0,6948;0,6037;-0,3429;1,1822;0,3140;0,0391;0,1332;
6,253409;0,1104;0,8824;0,3547;0,6037;-0,3429;1,1822;0,3140;0,0391;0,1332;
6,260778;0,1104;0,8824;0,3547;0,3629;-0,0825;-0,4031;0,3140;0,0391;0,1332;
6,273278;0,1104;0,8824;0,3547;-0,0160;0,0004;-0,8334;0,3140;0,0391;0,1332;
6,297381;0,1104;0,8824;0,3547;0,3824;0,3885;-0,1200;0,3140;0,0391;0,1332;
6,306567;0,1104;0,8824;0,3547;0,3824;0,3885;-0,1200;0,1491;0,0476;0,0073;
6,315010;0,1104;0,8824;0,3547;0,9472;1,0215;-0,3500;0,1491;0,0476;0,0073;
6,324721;0,1818;0,9616;0,3801;0,9472;1,0215;-0,3500;0,1491;0,0476;0,0073;
6,331887;0,1818;0,9616;0,3801;0,8847;0,9549;-0,5497;0,1491;0,0476;0,0073;
6,351859;0,1818;0,9616;0,3801;-0,1108;0,1487;0,0543;0,1491;0,0476;0,0073;
6,359979;0,1818;0,9616;0,3801;-0,1108;0,1487;0,0543;0,1124;-0,0159;-0,0012;
6,372141;0,1818;0,9616;0,3801;-0,3966;-0,1397;-0,5634;0,1124;-0,0159;-0,0012;
6,381985;0,1329;0,8903;0,2990;-0,3966;-0,1397;-0,5634;0,1124;-0,0159;-0,0012;
6,392042;0,1329;0,8903;0,2990;0,2067;0,0808;-1,4453;0,1124;-0,0159;-0,0012;
6,412335;0,1329;0,8903;0,2990;0,1244;-0,1476;-0,3679;0,1124;-0,0159;-0,0012;
6,422379;0,1329;0,8903;0,2990;0,1244;-0,1476;-0,3679;-0,0379;0,0379;0,0489;
6,432103;0,1329;0,8903;0,2990;-0,0935;-0,1754;0,6231;-0,0379;0,0379;0,0489;
6,447239;0,1153;0,8512;0,4691;-0,0935;-0,1754;0,6231;-0,0379;0,0379;0,0489;
6,452170;0,1153;0,8512;0,4691;-0,0635;-0,2929;0,9880;-0,0379;0,0379;0,0489;
6,472536;0,1153;0,8512;0,4691;0,0712;-0,3579;0,2108;-0,0379;0,0379;0,0489;
6,487721;0,1153;0,8512;0,4691;0,0712;-0,3579;0,2108;0,0171;0,0953;0,1564;
6,496368;0,1153;0,8512;0,4691;0,3275;-0,2009;0,0782;0,0171;0,0953;0,1564;
6,513406;0,1652;0,8795;0,3850;0,3275;-0,2009;0,0782;0,0171;0,0953;0,1564;
6,522121;0,1652;0,8795;0,3850;0,2773;-0,2025;-0,0058;0,0171;0,0953;0,1564;
6,534535;0,1652;0,8795;0,3850;0,4036;-0,0770;-0,4083;0,0171;0,0953;0,1564;
6,553574;0,1652;0,8795;0,3850;0,7565;0,1613;-0,1262;0,0171;0,0953;0,1564;
6,563414;0,1652;0,8795;0,3850;0,7565;0,1613;-0,1262;0,0660;-0,0757;0,0709;
6,577522;0,1652;0,8795;0,3850;1,2563;0,5796;0,2105;0,0660;-0,0757;0,0709;
6,587115;0,2365;0,9313;0,3870;1,2563;0,5796;0,2105;0,0660;-0,0757;0,0709;
6,592720;0,2365;0,9313;0,3870;1,0282;0,4956;-0,2218;0,0660;-0,0757;0,0709;
6,613226;0,2365;0,9313;0,3870;0,6450;0,3143;-0,1602;0,0660;-0,0757;0,0709;
6,621321;0,2365;0,9313;0,3870;0,6450;0,3143;-0,1602;0,0257;-0,0244;-0,0611;
6,633339;0,2365;0,9313;0,3870;0,2086;0,0714;0,0915;0,0257;-0,0244;-0,0611;
6,644542;0,1564;0,8942;0,3987;0,2086;0,0714;0,0915;0,0257;-0,0244;-0,0611;
6,653079;0,1564;0,8942;0,3987;0,3389;0,1472;-0,0541;0,0257;-0,0244;-0,0611;
6,671994;0,1564;0,8942;0,3987;0,0730;-0,0855;-0,0034;0,0257;-0,0244;-0,0611;
6,681989;0,1564;0,8942;0,3987;0,0730;-0,0855;-0,0034;-0,0367;0,0892;-0,0171;
6,691922;0,1564;0,8942;0,3987;-0,0062;-0,2020;0,3050;-0,0367;0,0892;-0,0171;
6,706747;0,1642;0,8707;0,4241;-0,0062;-0,2020;0,3050;-0,0367;0,0892;-0,0171;
6,711860;0,1642;0,8707;0,4241;-0,1303;-0,2335;-0,0191;-0,0367;0,0892;-0,0171;
6,731703;0,1642;0,8707;0,4241;0,3162;-0,0684;-0,1291;-0,0367;0,0892;-0,0171;
6,746734;0,1642;0,8707;0,4241;0,3162;-0,0684;-0,1291;-0,0232;0,0244;0,0709;
6,751523;0,1642;0,8707;0,4241;-0,0356;-0,1312;0,1393;-0,0232;0,0244;0,0709;
6,771738;0,1652;0,8990;0,4485;-0,0356;-0,1312;0,1393;-0,0232;0,0244;0,0709;
6,773117;0,1652;0,8990;0,4485;-0,0018;-0,1568;0,2635;-0,0232;0,0244;0,0709;
6,791654;0,1652;0,8990;0,4485;0,2912;0,1601;0,1685;-0,0232;0,0244;0,0709;
6,811954;0,1652;0,8990;0,4485;0,3427;0,1309;0,1114;-0,0232;0,0244;0,0709;
6,813289;0,1652;0,8990;0,4485;0,3427;0,1309;0,1114;0,0367;0,0867;0,0208;
6,832205;0,1652;0,8990;0,4485;0,4471;0,1440;0,1513;0,0367;0,0867;0,0208;
6,837947;0,1827;0,8942;0,3987;0,4471;0,1440;0,1513;0,0367;0,0867;0,0208;
6,851838;0,1827;0,8942;0,3987;0,3529;0,1230;-0,1608;0,0367;0,0867;0,0208;
6,872433;0,1827;0,8942;0,3987;0,3213;0,1559;-0,4637;0,0367;0,0867;0,0208;
6,879121;0,1827;0,8942;0,3987;0,3213;0,1559;-0,4637;-0,0305;0,0073;-0,0110;
6,892118;0,1827;0,8942;0,3987;0,1170;0,0492;-0,1334;-0,0305;0,0073;-0,0110;
6,903369;0,1681;0,8903;0,4212;0,1170;0,0492;-0,1334;-0,0305;0,0073;-0,0110;
6,912324;0,1681;0,8903;0,4212;0,2941;0,0245;-0,0419;-0,0305;0,0073;-0,0110;
6,932198;0,1681;0,8903;0,4212;0,0610;-0,0169;0,0464;-0,0305;0,0073;-0,0110;
6,943662;0,1681;0,8903;0,4212;0,0610;-0,0169;0,0464;0,0159;0,0220;0,0342;
6,956298;0,1681;0,8903;0,4212;-0,0760;-0,1027;0,5276;0,0159;0,0220;0,0342;
6,969552;0,1573;0,8727;0,4378;-0,0760;-0,1027;0,5276;0,0159;0,0220;0,0342;
6,974073;0,1573;0,8727;0,4378;-0,0632;-0,0829;0,1764;0,0159;0,0220;0,0342;
6,992114;0,1573;0,8727;0,4378;0,3598;0,0675;0,0512;0,0159;0,0220;0,0342;
7,007029;0,1573;0,8727;0,4378;0,3598;0,0675;0,0512;-0,0232;0,0990;-0,0501;
7,012140;0,1573;0,8727;0,4378;0,6046;0,3736;0,0536;-0,0232;0,0990;-0,0501;
7,031944;0,1309;0,8658;0,4075;0,6046;0,3736;0,0536;-0,0232;0,0990;-0,0501;
7,034328;0,1309;0,8658;0,4075;0,1757;0,0617;0,0292;-0,0232;0,0990;-0,0501;
7,051878;0,1309;0,8658;0,4075;-0,1096;-0,1308;-0,2814;-0,0232;0,0990;-0,0501;
7,072645;0,1309;0,8658;0,4075;0,3861;0,1405;-0,1790;-0,0232;0,0990;-0,0501;
7,076980;0,1309;0,8658;0,4075;0,3861;0,1405;-0,1790;-0,0342;0,0330;-0,0391;
7,092344;0,1309;0,8658;0,4075;0,2574;0,1525;0,4218;-0,0342;0,0330;-0,0391;
7,097391;0,1163;0,8766;0,4642;0,2574;0,1525;0,4218;-0,0342;0,0330;-0,0391;
7,112811;0,1163;0,8766;0,4642;-0,1586;0,0163;0,4015;-0,0342;0,0330;-0,0391;
7,135084;0,1163;0,8766;0,4642;-0,3170;-0,1796;-0,1572;-0,0342;0,0330;-0,0391;
7,141205;0,1163;0,8766;0,4642;-0,3170;-0,1796;-0,1572;0,0525;0,0269;0,0501;
7,154756;0,1163;0,8766;0,4642;-0,0211;0,0593;0,2010;0,0525;0,0269;0,0501;
7,164773;0,0567;0,9401;0,4515;-0,0211;0,0593;0,2010;0,0525;0,0269;0,0501;
7,173988;0,0567;0,9401;0,4515;-0,1227;0,4611;0,0787;0,0525;0,0269;0,0501;
7,193206;0,0567;0,9401;0,4515;-1,1480;0,5336;0,6999;0,0525;0,0269;0,0501;
7,206120;0,0567;0,9401;0,4515;-1,1480;0,5336;0,6999;0,1503;0,1772;0,2468;
7,215672;0,0567;0,9401;0,4515;-0,7352;1,5425;0,8226;0,1503;0,1772;0,2468;
7,227955;0,1329;1,3036;0,6127;-0,7352;1,5425;0,8226;0,1503;0,1772;0,2468;
7,233345;0,1329;1,3036;0,6127;0,0268;3,3925;0,3330;0,1503;0,1772;0,2468;
7,251877;0,1329;1,3036;0,6127;0,0418;4,4030;2,4355;0,1503;0,1772;0,2468;
7,266992;0,1329;1,3036;0,6127;0,0418;4,4030;2,4355;0,6658;0,0941;-0,0232;
7,271999;0,1329;1,3036;0,6127;-0,0962;5,0096;4,1011;0,6658;0,0941;-0,0232;
7,291757;0,1534;1,4170;0,8003;-0,0962;5,0096;4,1011;0,6658;0,0941;-0,0232;
7,294751;0,1534;1,4170;0,8003;-0,1573;4,9831;4,3100;0,6658;0,0941;-0,0232;
7,312040;0,1534;1,4170;0,8003;0,3081;5,1123;3,8397;0,6658;0,0941;-0,0232;
7,331941;0,1534;1,4170;0,8003;0,2088;4,7535;2,6428;0,6658;0,0941;-0,0232;
7,335315;0,1534;1,4170;0,8003;0,2088;4,7535;2,6428;1,2132;0,3225;-0,3543;
7,351853;0,1534;1,4170;0,8003;-0,5227;3,9347;1,4704;1,2132;0,3225;-0,3543;
7,356783;-0,0577;1,1991;0,5316;-0,5227;3,9347;1,4704;1,2132;0,3225;-0,3543;
7,372017;-0,0577;1,1991;0,5316;-1,3302;2,8882;1,7534;1,2132;0,3225;-0,3543;
7,392542;-0,0577;1,1991;0,5316;-1,2469;2,3301;2,0400;1,2132;0,3225;-0,3543;
7,402381;-0,0577;1,1991;0,5316;-1,2469;2,3301;2,0400;1,0140;0,2920;-0,3433;
7,415089;-0,0577;1,1991;0,5316;-1,1264;1,0522;1,2942;1,0140;0,2920;-0,3433;
7,421811;-0,1339;0,8961;0,4573;-1,1264;1,0522;1,2942;1,0140;0,2920;-0,3433;
7,432509;-0,1339;0,8961;0,4573;-1,5236;0,1294;1,5296;1,0140;0,2920;-0,3433;
7,452277;-0,1339;0,8961;0,4573;-1,9941;-0,8336;0,9724;1,0140;0,2920;-0,3433;
7,464255;-0,1339;0,8961;0,4573;-1,9941;-0,8336;0,9724;1,0739;0,2419;0,2480;
7,475724;-0,1339;0,8961;0,4573;-1,2761;-1,6169;-0,3920;1,0739;0,2419;0,2480;
7,487921;0,2287;0,7026;0,2179;-1,2761;-1,6169;-0,3920;1,0739;0,2419;0,2480;
7,496206;0,2287;0,7026;0,2179;0,6882;-2,1516;-0,3130;1,0739;0,2419;0,2480;
7,513436;0,2287;0,7026;0,2179;1,7822;-2,4580;-0,4868;1,0739;0,2419;0,2480;
7,528806;0,2287;0,7026;0,2179;1,7822;-2,4580;-0,4868;0,6927;0,3848;-0,0110;
7,532337;0,2287;0,7026;0,2179;1,9082;-2,9610;-1,2059;0,6927;0,3848;-0,0110;
7,551888;0,5267;0,5893;0,0850;1,9082;-2,9610;-1,2059;0,6927;0,3848;-0,0110;
7,554138;0,5267;0,5893;0,0850;3,0887;-3,7306;-0,5345;0,6927;0,3848;-0,0110;
7,572392;0,5267;0,5893;0,0850;4,3728;-3,7334;-1,0483;0,6927;0,3848;-0,0110;
7,592223;0,5267;0,5893;0,0850;4,3468;-4,4378;-2,1310;0,6927;0,3848;-0,0110;
7,596830;0,5267;0,5893;0,0850;4,3468;-4,4378;-2,1310;0,3225;0,2651;-0,2993;
7,615916;0,5267;0,5893;0,0850;5,3532;-3,9743;-3,4392;0,3225;0,2651;-0,2993;
7,627490;0,7798;0,5990;-0,0958;5,3532;-3,9743;-3,4392;0,3225;0,2651;-0,2993;
7,636111;0,7798;0,5990;-0,0958;5,9634;-3,6430;-2,9688;0,3225;0,2651;-0,2993;
7,652016;0,7798;0,5990;-0,0958;6,0998;-3,8957;-0,3877;0,3225;0,2651;-0,2993;
7,661183;0,7798;0,5990;-0,0958;6,0998;-3,8957;-0,3877;0,8283;-0,3629;-0,2529;
7,672036;0,7798;0,5990;-0,0958;5,7279;-3,0491;-0,0594;0,8283;-0,3629;-0,2529;
7,681689;0,7573;0,8316;-0,2863;5,7279;-3,0491;-0,0594;0,8283;-0,3629;-0,2529;
7,693674;0,7573;0,8316;-0,2863;5,8161;-2,2422;-2,5570;0,8283;-0,3629;-0,2529;
7,712034;0,7573;0,8316;-0,2863;5,1784;-0,7964;-3,7618;0,8283;-0,3629;-0,2529;
7,721796;0,7573;0,8316;-0,2863;5,1784;-0,7964;-3,7618;0,1588;-1,1680;-0,5400;
7,732043;0,7573;0,8316;-0,2863;4,9482;-0,3651;-2,4928;0,1588;-1,1680;-0,5400;
7,746924;0,4652;1,0271;0,1583;4,9482;-0,3651;-2,4928;0,1588;-1,1680;-0,5400;
7,752026;0,4652;1,0271;0,1583;4,0752;0,3236;0,8365;0,1588;-1,1680;-0,5400;
7,772482;0,4652;1,0271;0,1583;1,7995;0,5858;1,1468;0,1588;-1,1680;-0,5400;
7,787347;0,4652;1,0271;0,1583;1,7995;0,5858;1,1468;0,4618;-1,9096;-0,4826;
7,794241;0,4652;1,0271;0,1583;-0,6794;0,5438;0,1518;0,4618;-1,9096;-0,4826;
7,813142;-0,0020;1,0671;0,0606;-0,6794;0,5438;0,1518;0,4618;-1,9096;-0,4826;
7,824981;-0,0020;1,0671;0,0606;-0,8046;0,7805;0,0379;0,4618;-1,9096;-0,4826;
7,836674;-0,0020;1,0671;0,0606;-1,5518;0,8645;0,7745;0,4618;-1,9096;-0,4826;
7,852018;-0,0020;1,0671;0,0606;-2,9002;0,7364;1,8715;0,4618;-1,9096;-0,4826;
7,855119;-0,0020;1,0671;0,0606;-2,9002;0,7364;1,8715;0,1246;-1,7190;-0,6683;
7,872018;-0,0020;1,0671;0,0606;-3,9838;0,3848;2,8340;0,1246;-1,7190;-0,6683;
7,876694;-0,4398;0,9215;0,3704;-3,9838;0,3848;2,8340;0,1246;-1,7190;-0,6683;
7,892029;-0,4398;0,9215;0,3704;-4,7695;-0,4490;3,5044;0,1246;-1,7190;-0,6683;
7,912007;-0,4398;0,9215;0,3704;-4,9557;-0,9021;3,3175;0,1246;-1,7190;-0,6683;
7,918941;-0,4398;0,9215;0,3704;-4,9557;-0,9021;3,3175;0,0892;-0,9835;-0,5828;
7,932051;-0,4398;0,9215;0,3704;-5,6132;-1,5231;2,0593;0,0892;-0,9835;-0,5828;
7,943220;-0,5863;0,7271;0,2795;-5,6132;-1,5231;2,0593;0,0892;-0,9835;-0,5828;
7,951846;-0,5863;0,7271;0,2795;-5,1890;-2,3483;1,9083;0,0892;-0,9835;-0,5828;
7,972422;-0,5863;0,7271;0,2795;-5,5615;-3,1493;2,7729;0,0892;-0,9835;-0,5828;
7,982366;-0,5863;0,7271;0,2795;-5,5615;-3,1493;2,7729;0,2382;-0,5327;-0,3543;
7,992488;-0,5863;0,7271;0,2795;-5,6696;-3,9761;1,5464;0,2382;-0,5327;-0,3543;
8,009815;-0,8121;0,4837;0,0518;-5,6696;-3,9761;1,5464;0,2382;-0,5327;-0,3543;
8,019857;-0,8121;0,4837;0,0518;-6,3199;-4,8438;0,2229;0,2382;-0,5327;-0,3543;
8,034243;-0,8121;0,4837;0,0518;-6,1147;-4,9034;0,2297;0,2382;-0,5327;-0,3543;
8,047110;-0,8121;0,4837;0,0518;-6,1147;-4,9034;0,2297;-0,1197;0,2712;0,3360;
8,051801;-0,8121;0,4837;0,0518;-5,4465;-4,7655;1,7095;-0,1197;0,2712;0,3360;
8,071912;-0,5316;0,4974;0,0596;-5,4465;-4,7655;1,7095;-0,1197;0,2712;0,3360;
8,074933;-0,5316;0,4974;0,0596;-3,9459;-4,5519;1,0558;-0,1197;0,2712;0,3360;
8,091929;-0,5316;0,4974;0,0596;-3,1417;-4,6075;0,1276;-0,1197;0,2712;0,3360;
8,112229;-0,5316;0,4974;0,0596;-2,5937;-5,0872;-0,2928;-0,1197;0,2712;0,3360;
8,115296;-0,5316;0,4974;0,0596;-2,5937;-5,0872;-0,2928;-1,1289;0,7648;0,7709;
8,131760;-0,5316;0,4974;0,0596;-1,9552;-5,0046;0,8485;-1,1289;0,7648;0,7709;
8,138079;-0,1798;0,5590;0,2756;-1,9552;-5,0046;0,8485;-1,1289;0,7648;0,7709;
8,152230;-0,1798;0,5590;0,2756;0,1394;-3,8373;1,7510;-1,1289;0,7648;0,7709;
8,172491;-0,1798;0,5590;0,2756;0,4625;-4,6398;0,6324;-1,1289;0,7648;0,7709;
8,179416;-0,1798;0,5590;0,2756;0,4625;-4,6398;0,6324;-1,7776;1,9059;0,6084;
8,192542;-0,1798;0,5590;0,2756;-0,8708;-5,2256;0,8187;-1,7776;1,9059;0,6084;
8,202129;-0,5062;0,3704;0,4700;-0,8708;-5,2256;0,8187;-1,7776;1,9059;0,6084;
8,213112;-0,5062;0,3704;0,4700;-2,7131;-5,5831;2,3903;-1,7776;1,9059;0,6084;
8,233707;-0,5062;0,3704;0,4700;-1,5937;-4,5966;2,5746;-1,7776;1,9059;0,6084;
8,244774;-0,5062;0,3704;0,4700;-1,5937;-4,5966;2,5746;-1,7214;2,3457;1,8741;
8,253126;-0,5062;0,3704;0,4700;1,3133;-3,2607;1,2918;-1,7214;2,3457;1,8741;
8,268360;0,0440;0,7720;0,5287;1,3133;-3,2607;1,2918;-1,7214;2,3457;1,8741;
8,275667;0,0440;0,7720;0,5287;0,6282;-2,4051;0,1217;-1,7214;2,3457;1,8741;
8,292941;0,0440;0,7720;0,5287;2,6976;-0,9524;2,7551;-1,7214;2,3457;1,8741;
8,310570;0,0440;0,7720;0,5287;2,6976;-0,9524;2,7551;-1,2352;1,8350;2,5693;
8,318599;0,0440;0,7720;0,5287;6,7031;2,5829;2,8601;-1,2352;1,8350;2,5693;
8,331868;1,2372;1,6251;0,5433;6,7031;2,5829;2,8601;-1,2352;1,8350;2,5693;
8,335522;1,2372;1,6251;0,5433;8,8831;5,3573;1,0535;-1,2352;1,8350;2,5693;
8,352424;1,2372;1,6251;0,5433;11,7423;6,9685;1,5751;-1,2352;1,8350;2,5693;
8,372092;1,2372;1,6251;0,5433;13,7764;8,5999;1,0031;-1,2352;1,8350;2,5693;
8,375412;1,2372;1,6251;0,5433;13,7764;8,5999;1,0031;-0,7257;0,4704;0,6316;
8,391897;1,2372;1,6251;0,5433;12,1976;8,2961;-0,5131;-0,7257;0,4704;0,6316;
8,396651;0,9235;1,4561;0,4818;12,1976;8,2961;-0,5131;-0,7257;0,4704;0,6316;
8,411915;0,9235;1,4561;0,4818;8,3937;5,8915;0,4690;-0,7257;0,4704;0,6316;
8,432110;0,9235;1,4561;0,4818;6,6719;4,3032;1,3937;-0,7257;0,4704;0,6316;
8,441579;0,9235;1,4561;0,4818;6,6719;4,3032;1,3937;-0,1295;-0,3506;0,1796;
8,452503;0,9235;1,4561;0,4818;5,0936;2,9195;1,5830;-0,1295;-0,3506;0,1796;
8,462093;0,5433;1,0486;0,5345;5,0936;2,9195;1,5830;-0,1295;-0,3506;0,1796;
8,472622;0,5433;1,0486;0,5345;4,0257;2,0594;1,2587;-0,1295;-0,3506;0,1796;
8,493034;0,5433;1,0486;0,5345;3,0517;1,0730;1,2596;-0,1295;-0,3506;0,1796;
8,504951;0,5433;1,0486;0,5345;3,0517;1,0730;1,2596;-0,1429;-0,1698;-0,0281;
8,512780;0,5433;1,0486;0,5345;1,5100;0,4299;1,8519;-0,1429;-0,1698;-0,0281;
8,527095;0,3860;0,9118;0,6528;1,5100;0,4299;1,8519;-0,1429;-0,1698;-0,0281;
8,533443;0,3860;0,9118;0,6528;0,8943;0,0606;2,5031;-0,1429;-0,1698;-0,0281;
8,551867;0,3860;0,9118;0,6528;2,2019;0,4386;1,9015;-0,1429;-0,1698;-0,0281;
8,566929;0,3860;0,9118;0,6528;2,2019;0,4386;1,9015;0,3372;-0,4533;-0,2566;
8,571997;0,3860;0,9118;0,6528;3,4220;0,8024;0,6200;0,3372;-0,4533;-0,2566;
8,591772;0,5267;0,9078;0,3303;3,4220;0,8024;0,6200;0,3372;-0,4533;-0,2566;
8,593760;0,5267;0,9078;0,3303;3,2569;0,6819;0,0703;0,3372;-0,4533;-0,2566;
8,611929;0,5267;0,9078;0,3303;3,0018;0,2739;-0,6882;0,3372;-0,4533;-0,2566;
8,632098;0,5267;0,9078;0,3303;2,5359;0,1204;-1,2509;0,3372;-0,4533;-0,2566;
8,636134;0,5267;0,9078;0,3303;2,5359;0,1204;-1,2509;0,0794;-0,5644;-0,6145;
8,652531;0,5267;0,9078;0,3303;1,9787;-0,2645;-1,7725;0,0794;-0,5644;-0,6145;
8,659050;0,3059;0,7759;0,2277;1,9787;-0,2645;-1,7725;0,0794;-0,5644;-0,6145;
8,672410;0,3059;0,7759;0,2277;0,9369;-0,9462;-1,4552;0,0794;-0,5644;-0,6145;
8,693288;0,3059;0,7759;0,2277;0,2653;-1,6808;-1,5477;0,0794;-0,5644;-0,6145;
8,703344;0,3059;0,7759;0,2277;0,2653;-1,6808;-1,5477;-0,3091;0,1014;-0,3763;
8,712856;0,3059;0,7759;0,2277;-0,5206;-2,3768;-1,2711;-0,3091;0,1014;-0,3763;
8,723968;-0,0244;0,5600;0,2306;-0,5206;-2,3768;-1,2711;-0,3091;0,1014;-0,3763;
8,735877;-0,0244;0,5600;0,2306;-1,9475;-3,0782;-1,2139;-0,3091;0,1014;-0,3763;
8,757032;-0,0244;0,5600;0,2306;-1,8978;-3,2414;-1,8673;-0,3091;0,1014;-0,3763;
8,766401;-0,0244;0,5600;0,2306;-1,8978;-3,2414;-1,8673;-0,6194;-0,2663;-0,0941;
8,772441;-0,0244;0,5600;0,2306;0,2544;-2,2052;-2,6652;-0,6194;-0,2663;-0,0941;
8,786861;0,1749;0,6088;0,3899;0,2544;-2,2052;-2,6652;-0,6194;-0,2663;-0,0941;
8,791778;0,1749;0,6088;0,3899;0,4461;-1,9358;-2,0491;-0,6194;-0,2663;-0,0941;
8,811931;0,1749;0,6088;0,3899;-0,6085;-2,6387;0,7119;-0,6194;-0,2663;-0,0941;
8,827060;0,1749;0,6088;0,3899;-0,6085;-2,6387;0,7119;-1,1460;0,6365;-0,6768;
8,832109;0,1749;0,6088;0,3899;-0,0151;-1,1362;1,7724;-1,1460;0,6365;-0,6768;
8,851851;-0,1661;0,9362;0,7349;-0,0151;-1,1362;1,7724;-1,1460;0,6365;-0,6768;
8,854781;-0,1661;0,9362;0,7349;-1,5152;-0,3149;1,7353;-1,1460;0,6365;-0,6768;
8,871924;-0,1661;0,9362;0,7349;-2,9406;0,9280;2,2254;-1,1460;0,6365;-0,6768;
8,892329;-0,1661;0,9362;0,7349;-4,6727;5,2783;3,6272;-1,1460;0,6365;-0,6768;
8,898027;-0,1661;0,9362;0,7349;-4,6727;5,2783;3,6272;0,6768;-1,4050;-0,3238;
8,913668;-0,1661;0,9362;0,7349;3,3368;5,6694;13,6559;0,6768;-1,4050;-0,3238;
8,919994;0,0059;0,7153;0,2599;3,3368;5,6694;13,6559;0,6768;-1,4050;-0,3238;
8,934138;0,0059;0,7153;0,2599;0,0634;-1,0734;1,0796;0,6768;-1,4050;-0,3238;
8,953404;0,0059;0,7153;0,2599;-1,9756;-1,7072;-6,5538;0,6768;-1,4050;-0,3238;
8,964480;0,0059;0,7153;0,2599;-1,9756;-1,7072;-6,5538;-0,4801;-0,5596;-0,1943;
8,973377;0,0059;0,7153;0,2599;-0,9458;-1,1288;-2,8219;-0,4801;-0,5596;-0,1943;
8,983798;0,1710;0,8394;0,7339;-0,9458;-1,1288;-2,8219;-0,4801;-0,5596;-0,1943;
8,993224;0,1710;0,8394;0,7339;-0,2837;-0,5372;0,6301;-0,4801;-0,5596;-0,1943;
9,015314;0,1710;0,8394;0,7339;1,0394;-0,0071;3,3705;-0,4801;-0,5596;-0,1943;
9,025779;0,1710;0,8394;0,7339;1,0394;-0,0071;3,3705;0,1869;0,0611;-0,0806;
9,036966;0,1710;0,8394;0,7339;1,2741;0,0360;3,1387;0,1869;0,0611;-0,0806;
9,046703;0,1417;0,7740;0,4886;1,2741;0,0360;3,1387;0,1869;0,0611;-0,0806;
9,052333;0,1417;0,7740;0,4886;0,7395;-0,5001;0,6206;0,1869;0,0611;-0,0806;
9,072201;0,1417;0,7740;0,4886;0,0069;-0,6594;-0,2016;0,1869;0,0611;-0,0806;
9,087108;0,1417;0,7740;0,4886;0,0069;-0,6594;-0,2016;0,1576;-0,2529;0,0977;
9,093871;0,1417;0,7740;0,4886;-0,2380;-0,4250;-0,2442;0,1576;-0,2529;0,0977;
9,111889;0,2668;0,8981;0,5140;-0,2380;-0,4250;-0,2442;0,1576;-0,2529;0,0977;
9,115043;0,2668;0,8981;0,5140;0,8160;0,2556;-0,0169;0,1576;-0,2529;0,0977;
9,131901;0,2668;0,8981;0,5140;1,2389;0,5176;0,1368;0,1576;-0,2529;0,0977;
9,151933;0,2668;0,8981;0,5140;1,2100;0,3273;-0,1593;0,1576;-0,2529;0,0977;
9,154615;0,2668;0,8981;0,5140;1,2100;0,3273;-0,1593;-0,0513;0,0794;-0,1478;
9,172493;0,2668;0,8981;0,5140;0,5088;-0,1190;-0,5008;-0,0513;0,0794;-0,1478;
9,178669;0,1730;0,8170;0,5052;0,5088;-0,1190;-0,5008;-0,0513;0,0794;-0,1478;
9,193949;0,1730;0,8170;0,5052;0,3412;-0,3447;0,0056;-0,0513;0,0794;-0,1478;
9,213613;0,1730;0,8170;0,5052;0,1446;-0,2436;0,1154;-0,0513;0,0794;-0,1478;
9,223006;0,1730;0,8170;0,5052;0,1446;-0,2436;0,1154;-0,0024;-0,1014;-0,0110;
9,234282;0,1730;0,8170;0,5052;-0,0749;-0,3583;0,0950;-0,0024;-0,1014;-0,0110;
9,243754;0,1739;0,8375;0,5463;-0,0749;-0,3583;0,0950;-0,0024;-0,1014;-0,0110;
9,253144;0,1739;0,8375;0,5463;0,3287;-0,0938;0,4481;-0,0024;-0,1014;-0,0110;
9,273550;0,1739;0,8375;0,5463;0,2334;-0,0808;0,2811;-0,0024;-0,1014;-0,0110;
9,282693;0,1739;0,8375;0,5463;0,2334;-0,0808;0,2811;-0,0342;0,0354;0,0195;
9,295227;0,1739;0,8375;0,5463;0,2155;-0,1578;-0,2120;-0,0342;0,0354;0,0195;
9,312428;0,2023;0,8590;0,4788;0,2155;-0,1578;-0,2120;-0,0342;0,0354;0,0195;
9,321443;0,2023;0,8590;0,4788;0,2025;0,0030;-0,6893;-0,0342;0,0354;0,0195;
9,334648;0,2023;0,8590;0,4788;0,6666;0,2652;0,1241;-0,0342;0,0354;0,0195;
9,348488;0,2023;0,8590;0,4788;0,6666;0,2652;0,1241;0,0977;0,0110;-0,0257;
9,351938;0,2023;0,8590;0,4788;0,7454;0,3421;0,7918;0,0977;0,0110;-0,0257;
9,371867;0,1524;0,8228;0,4827;0,7454;0,3421;0,7918;0,0977;0,0110;-0,0257;
9,374755;0,1524;0,8228;0,4827;0,4602;-0,0495;0,4024;0,0977;0,0110;-0,0257;
9,391836;0,1524;0,8228;0,4827;0,0362;-0,1926;-0,1852;0,0977;0,0110;-0,0257;
9,412082;0,1524;0,8228;0,4827;-0,2182;-0,4184;0,0043;0,0977;0,0110;-0,0257;
9,415174;0,1524;0,8228;0,4827;-0,2182;-0,4184;0,0043;0,0635;-0,0696;0,1185;
9,432253;0,1524;0,8228;0,4827;-0,1859;-0,3848;0,2212;0,0635;-0,0696;0,1185;
9,436627;0,2248;0,8717;0,4720;-0,1859;-0,3848;0,2212;0,0635;-0,0696;0,1185;
9,451941;0,2248;0,8717;0,4720;0,6963;0,2530;-0,1492;0,0635;-0,0696;0,1185;
9,472053;0,2248;0,8717;0,4720;0,5336;0,0797;-0,3627;0,0635;-0,0696;0,1185;
9,478923;0,2248;0,8717;0,4720;0,5336;0,0797;-0,3627;-0,0073;-0,0330;0,0195;
9,492252;0,2248;0,8717;0,4720;0,2747;-0,0721;-0,0071;-0,0073;-0,0330;0,0195;
9,502399;0,1954;0,8492;0,5111;0,2747;-0,0721;-0,0071;-0,0073;-0,0330;0,0195;
9,512292;0,1954;0,8492;0,5111;0,3140;0,0815;0,2068;-0,0073;-0,0330;0,0195;
9,532515;0,1954;0,8492;0,5111;0,4531;0,0115;-0,0138;-0,0073;-0,0330;0,0195;
9,542751;0,1954;0,8492;0,5111;0,4531;0,0115;-0,0138;-0,0330;0,0476;-0,0696;
9,553058;0,1954;0,8492;0,5111;0,6484;0,2243;0,2001;-0,0330;0,0476;-0,0696;
9,567977;0,1622;0,8209;0,5336;0,6484;0,2243;0,2001;-0,0330;0,0476;-0,0696;
9,575482;0,1622;0,8209;0,5336;0,3308;0,0474;0,3328;-0,0330;0,0476;-0,0696;
9,592859;0,1622;0,8209;0,5336;-0,1194;-0,2282;0,1677;-0,0330;0,0476;-0,0696;
9,609952;0,1622;0,8209;0,5336;-0,1194;-0,2282;0,1677;-0,0098;-0,0550;0,0354;
9,615632;0,1622;0,8209;0,5336;-0,0592;-0,1441;-0,1265;-0,0098;-0,0550;0,0354;
9,634437;0,1867;0,8424;0,5091;-0,0592;-0,1441;-0,1265;-0,0098;-0,0550;0,0354;
9,642954;0,1867;0,8424;0,5091;0,1544;-0,0752;-0,1296;-0,0098;-0,0550;0,0354;
9,653625;0,1867;0,8424;0,5091;0,2158;0,0249;0,0651;-0,0098;-0,0550;0,0354;
9,672048;0,1867;0,8424;0,5091;0,4507;0,0786;0,0378;-0,0098;-0,0550;0,0354;
9,675670;0,1867;0,8424;0,5091;0,4507;0,0786;0,0378;0,0257;0,0208;0,0110;
9,692053;0,1867;0,8424;0,5091;0,2834;0,0171;0,3759;0,0257;0,0208;0,0110;
9,696636;0,1847;0,8424;0,4984;0,2834;0,0171;0,3759;0,0257;0,0208;0,0110;
9,711894;0,1847;0,8424;0,4984;0,1733;0,0074;0,0561;0,0257;0,0208;0,0110;
9,732208;0,1847;0,8424;0,4984;0,1351;-0,0248;-0,1811;0,0257;0,0208;0,0110;
9,739499;0,1847;0,8424;0,4984;0,1351;-0,0248;-0,1811;0,0086;-0,0794;0,0049;
9,752946;0,1847;0,8424;0,4984;0,1532;-0,0254;-0,0749;0,0086;-0,0794;0,0049;
9,761752;0,2013;0,8521;0,5248;0,1532;-0,0254;-0,0749;0,0086;-0,0794;0,0049;
9,772646;0,2013;0,8521;0,5248;0,4173;0,1283;0,3032;0,0086;-0,0794;0,0049;
9,792402;0,2013;0,8521;0,5248;0,1956;-0,0041;0,1304;0,0086;-0,0794;0,0049;
9,803451;0,2013;0,8521;0,5248;0,1956;-0,0041;0,1304;0,0379;-0,0538;0,0110;
9,812988;0,2013;0,8521;0,5248;-0,0152;-0,1141;-0,0210;0,0379;-0,0538;0,0110;
9,827834;0,1857;0,8336;0,4984;-0,0152;-0,1141;-0,0210;0,0379;-0,0538;0,0110;
9,836904;0,1857;0,8336;0,4984;0,0588;-0,0158;0,1010;0,0379;-0,0538;0,0110;
9,853324;0,1857;0,8336;0,4984;0,1041;-0,0527;-0,0976;0,0379;-0,0538;0,0110;
9,872264;0,1857;0,8336;0,4984;0,1041;-0,0527;-0,0976;-0,0318;0,0208;-0,0330;
9,877773;0,1857;0,8336;0,4984;0,3512;0,1317;-0,1961;-0,0318;0,0208;-0,0330;
9,892736;0,1642;0,8248;0,5316;0,3512;0,1317;-0,1961;-0,0318;0,0208;-0,0330;
9,900793;0,1642;0,8248;0,5316;0,1800;0,0560;0,3169;-0,0318;0,0208;-0,0330;
9,912878;0,1642;0,8248;0,5316;-0,1127;-0,1292;0,3081;-0,0318;0,0208;-0,0330;
9,933968;0,1642;0,8248;0,5316;-0,0138;-0,0701;0,1343;-0,0318;0,0208;-0,0330;
9,936952;0,1642;0,8248;0,5316;-0,0138;-0,0701;0,1343;0,0269;0,0159;0,0244;
9,952021;0,1642;0,8248;0,5316;0,4278;0,1826;0,0110;0,0269;0,0159;0,0244;
9,956815;0,2326;0,8600;0,5023;0,4278;0,1826;0,0110;0,0269;0,0159;0,0244;
9,972028;0,2326;0,8600;0,5023;0,5901;0,2392;0,0421;0,0269;0,0159;0,0244;
9,991892;0,2326;0,8600;0,5023;0,2887;0,1056;-0,0624;0,0269;0,0159;0,0244;
9,999491;0,2326;0,8600;0,5023;0,2887;0,1056;-0,0624;-0,0489;0,0122;-0,0684;
10,011895;0,2326;0,8600;0,5023;0,1458;0,0076;-0,3913;-0,0489;0,0122;-0,0684;
10,021742;0,1622;0,8258;0,5336;0,1458;0,0076;-0,3913;-0,0489;0,0122;-0,0684;
10,033455;0,1622;0,8258;0,5336;-0,0956;-0,1061;-0,0593;-0,0489;0,0122;-0,0684;
10,052294;0,1622;0,8258;0,5336;-0,1701;-0,1247;0,3984;-0,0489;0,0122;-0,0684;
10,062184;0,1622;0,8258;0,5336;-0,1701;-0,1247;0,3984;0,0147;-0,0183;0,0037;
10,072457;0,1622;0,8258;0,5336;-0,0600;-0,1005;0,1152;0,0147;-0,0183;0,0037;
10,088331;0,1681;0,8365;0,5091;-0,0600;-0,1005;0,1152;0,0147;-0,0183;0,0037;
10,094311;0,1681;0,8365;0,5091;-0,0148;-0,0423;0,0098;0,0147;-0,0183;0,0037;
10,113077;0,1681;0,8365;0,5091;-0,0663;-0,0476;0,1012;0,0147;-0,0183;0,0037;
10,127827;0,1681;0,8365;0,5091;-0,0663;-0,0476;0,1012;-0,0110;0,0122;0,0305;
10,135640;0,1681;0,8365;0,5091;0,1220;0,0594;0,0072;-0,0110;0,0122;0,0305;
10,153073;0,1857;0,8346;0,5218;0,1220;0,0594;0,0072;-0,0110;0,0122;0,0305;
10,161868;0,1857;0,8346;0,5218;0,1590;0,0977;-0,0849;-0,0110;0,0122;0,0305;
10,173010;0,1857;0,8346;0,5218;0,0560;-0,0383;0,2187;-0,0110;0,0122;0,0305;
10,193142;0,1857;0,8346;0,5218;0,0456;0,0248;0,1857;-0,0110;0,0122;0,0305;
10,201249;0,1857;0,8346;0,5218;0,0456;0,0248;0,1857;-0,0098;0,0415;0,0379;
10,217742;0,1857;0,8346;0,5218;0,1904;0,0481;-0,2020;-0,0098;0,0415;0,0379;
10,227639;0,2218;0,8541;0,4955;0,1904;0,0481;-0,2020;-0,0098;0,0415;0,0379;
10,233787;0,2218;0,8541;0,4955;0,4517;0,1660;-0,0567;-0,0098;0,0415;0,0379;
10,252044;0,2218;0,8541;0,4955;-0,0107;0,0324;-0,0132;-0,0098;0,0415;0,0379;
10,259109;0,2218;0,8541;0,4955;-0,0107;0,0324;-0,0132;-0,0281;-0,0367;0,0086;
10,271872;0,2218;0,8541;0,4955;0,0278;-0,0370;-0,1257;-0,0281;-0,0367;0,0086;
10,281702;0,2228;0,8512;0,5365;0,0278;-0,0370;-0,1257;-0,0281;-0,0367;0,0086;
10,291895;0,2228;0,8512;0,5365;0,2023;0,1249;0,1412;-0,0281;-0,0367;0,0086;
10,311900;0,2228;0,8512;0,5365;0,2491;0,2140;0,3792;-0,0281;-0,0367;0,0086;
10,321794;0,2228;0,8512;0,5365;0,2491;0,2140;0,3792;0,0195;0,0452;-0,0122;
10,332380;0,2228;0,8512;0,5365;0,0902;0,0351;0,1546;0,0195;0,0452;-0,0122;
10,346876;0,1759;0,8375;0,4867;0,0902;0,0351;0,1546;0,0195;0,0452;-0,0122;
10,352043;0,1759;0,8375;0,4867;-0,0858;-0,0642;-0,0233;0,0195;0,0452;-0,0122;
10,372059;0,1759;0,8375;0,4867;-0,0139;0,0058;-0,2034;0,0195;0,0452;-0,0122;
10,387118;0,1759;0,8375;0,4867;-0,0139;0,0058;-0,2034;-0,0379;0,0648;-0,0037;
10,391883;0,1759;0,8375;0,4867;0,1812;0,0381;-0,0509;-0,0379;0,0648;-0,0037;
10,411912;0,1818;0,8355;0,5042;0,1812;0,0381;-0,0509;-0,0379;0,0648;-0,0037;
10,413983;0,1818;0,8355;0,5042;-0,0307;-0,0171;0,1084;-0,0379;0,0648;-0,0037;
10,432123;0,1818;0,8355;0,5042;-0,0184;0,0010;0,0056;-0,0379;0,0648;-0,0037;
10,452093;0,1818;0,8355;0,5042;0,2838;0,0899;-0,0438;-0,0379;0,0648;-0,0037;
10,454945;0,1818;0,8355;0,5042;0,2838;0,0899;-0,0438;-0,0281;0,0489;-0,0183;
10,472069;0,1818;0,8355;0,5042;0,1570;0,1853;0,2187;-0,0281;0,0489;-0,0183;
10,477107;0,1779;0,8355;0,5160;0,1570;0,1853;0,2187;-0,0281;0,0489;-0,0183;
10,493745;0,1779;0,8355;0,5160;-0,0634;0,0055;0,2222;-0,0281;0,0489;-0,0183;
10,511880;0,1779;0,8355;0,5160;0,0218;0,0598;-0,1061;-0,0281;0,0489;-0,0183;
10,519153;0,1779;0,8355;0,5160;0,0218;0,0598;-0,1061;0,0098;0,0476;-0,0159;
10,532027;0,1779;0,8355;0,5160;-0,0069;0,0505;0,1539;0,0098;0,0476;-0,0159;
10,543122;0,1730;0,8287;0,5443;-0,0069;0,0505;0,1539;0,0098;0,0476;-0,0159;
10,551838;0,1730;0,8287;0,5443;-0,1430;-0,0858;0,4168;0,0098;0,0476;-0,0159;
10,572235;0,1730;0,8287;0,5443;-0,0162;0,0056;0,1239;0,0098;0,0476;-0,0159;
10,582132;0,1730;0,8287;0,5443;-0,0162;0,0056;0,1239;0,0403;-0,0012;0,0684;
10,592548;0,1730;0,8287;0,5443;-0,2181;-0,1312;-0,2150;0,0403;-0,0012;0,0684;
10,606740;0,2023;0,8492;0,4876;-0,2181;-0,1312;-0,2150;0,0403;-0,0012;0,0684;
10,611905;0,2023;0,8492;0,4876;-0,1736;-0,0136;-0,2390;0,0403;-0,0012;0,0684;
10,632068;0,2023;0,8492;0,4876;0,2974;0,1955;-0,1293;0,0403;-0,0012;0,0684;
10,647156;0,2023;0,8492;0,4876;0,2974;0,1955;-0,1293;-0,0195;0,0440;-0,0049;
10,651814;0,2023;0,8492;0,4876;0,4176;0,2272;-0,1242;-0,0195;0,0440;-0,0049;
10,671904;0,2111;0,8512;0,5130;0,4176;0,2272;-0,1242;-0,0195;0,0440;-0,0049;
10,674784;0,2111;0,8512;0,5130;0,2771;0,1013;0,0151;-0,0195;0,0440;-0,0049;
10,691983;0,2111;0,8512;0,5130;0,2506;0,1493;0,1137;-0,0195;0,0440;-0,0049;
10,711871;0,2111;0,8512;0,5130;0,0976;0,1080;-0,0507;-0,0195;0,0440;-0,0049;
10,715061;0,2111;0,8512;0,5130;0,0976;0,1080;-0,0507;-0,0086;-0,0049;-0,0220;
10,732402;0,2111;0,8512;0,5130;-0,1544;-0,0186;0,1723;-0,0086;-0,0049;-0,0220;
10,736853;0,1808;0,8394;0,5267;-0,1544;-0,0186;0,1723;-0,0086;-0,0049;-0,0220;
10,752099;0,1808;0,8394;0,5267;-0,1252;-0,0116;0,3141;-0,0086;-0,0049;-0,0220;
10,772114;0,1808;0,8394;0,5267;-0,1025;0,1047;-0,1067;-0,0086;-0,0049;-0,0220;
10,778908;0,1808;0,8394;0,5267;-0,1025;0,1047;-0,1067;0,0293;-0,0244;0,0220;
10,792016;0,1808;0,8394;0,5267;-0,1459;-0,0048;-0,0174;0,0293;-0,0244;0,0220;
10,801761;0,1730;0,8707;0,5521;-0,1459;-0,0048;-0,0174;0,0293;-0,0244;0,0220;
10,811921;0,1730;0,8707;0,5521;-0,2914;0,2360;0,5220;0,0293;-0,0244;0,0220;
10,832176;0,1730;0,8707;0,5521;-0,2458;0,2846;0,0359;0,0293;-0,0244;0,0220;
10,841973;0,1730;0,8707;0,5521;-0,2458;0,2846;0,0359;-0,0232;0,0757;0,0513;
10,851849;0,1730;0,8707;0,5521;-0,4807;0,0929;-0,4948;-0,0232;0,0757;0,0513;
10,866677;0,1485;0,8727;0,4544;-0,4807;0,0929;-0,4948;-0,0232;0,0757;0,0513;
10,872685;0,1485;0,8727;0,4544;-0,2733;0,0272;-0,7550;-0,0232;0,0757;0,0513;
10,892000;0,1485;0,8727;0,4544;-0,2915;0,5252;-0,1730;-0,0232;0,0757;0,0513;
10,906941;0,1485;0,8727;0,4544;-0,2915;0,5252;-0,1730;-0,0684;-0,1600;-0,0171;
10,911893;0,1485;0,8727;0,4544;-0,3969;1,2900;0,4865;-0,0684;-0,1600;-0,0171;
10,932073;0,0489;1,3212;0,8003;-0,3969;1,2900;0,4865;-0,0684;-0,1600;-0,0171;
10,934556;0,0489;1,3212;0,8003;-0,3631;2,2784;1,1520;-0,0684;-0,1600;-0,0171;
10,951885;0,0489;1,3212;0,8003;-1,1861;4,7193;2,9401;-0,0684;-0,1600;-0,0171;
10,972316;0,0489;1,3212;0,8003;-2,6609;5,7592;5,5699;-0,0684;-0,1600;-0,0171;
10,975442;0,0489;1,3212;0,8003;-2,6609;5,7592;5,5699;1,1753;-0,4032;0,3323;
10,992025;0,0489;1,3212;0,8003;-1,8753;6,8358;7,7489;1,1753;-0,4032;0,3323;
10,996809;0,0860;1,9134;1,0232;-1,8753;6,8358;7,7489;1,1753;-0,4032;0,3323;
11,012303;0,0860;1,9134;1,0232;-0,9484;9,6723;6,4374;1,1753;-0,4032;0,3323;
11,032638;0,0860;1,9134;1,0232;-0,3104;10,9444;4,0756;1,1753;-0,4032;0,3323;
11,042005;0,0860;1,9134;1,0232;-0,3104;10,9444;4,0756;1,1093;0,7294;-1,0873;
11,053128;0,0860;1,9134;1,0232;0,0274;9,7891;6,4463;1,1093;0,7294;-1,0873;
11,063795;-0,0645;1,2411;1,4531;0,0274;9,7891;6,4463;1,1093;0,7294;-1,0873;
11,074623;-0,0645;1,2411;1,4531;-1,4420;5,4712;9,9736;1,1093;0,7294;-1,0873;
11,092081;-0,0645;1,2411;1,4531;-1,1651;1,4785;9,0206;1,1093;0,7294;-1,0873;
11,103139;-0,0645;1,2411;1,4531;-1,1651;1,4785;9,0206;2,5620;0,7465;-0,0953;
11,111870;-0,0645;1,2411;1,4531;-0,8455;-2,3347;4,3532;2,5620;0,7465;-0,0953;
11,126891;0,2375;0,3586;0,0606;-0,8455;-2,3347;4,3532;2,5620;0,7465;-0,0953;
11,131907;0,2375;0,3586;0,0606;0,8148;-3,3426;1,0169;2,5620;0,7465;-0,0953;
11,151900;0,2375;0,3586;0,0606;1,7517;-6,0716;-2,8585;2,5620;0,7465;-0,0953;
11,166834;0,2375;0,3586;0,0606;1,7517;-6,0716;-2,8585;1,4025;0,2969;-0,2908;
11,172100;0,2375;0,3586;0,0606;4,3481;-5,8204;-4,2295;1,4025;0,2969;-0,2908;
11,191791;0,6381;0,1818;-0,0332;4,3481;-5,8204;-4,2295;1,4025;0,2969;-0,2908;
11,194784;0,6381;0,1818;-0,0332;4,9584;-6,4226;-1,4467;1,4025;0,2969;-0,2908;
11,212335;0,6381;0,1818;-0,0332;5,0807;-7,7010;-2,1160;1,4025;0,2969;-0,2908;
11,232586;0,6381;0,1818;-0,0332;5,5469;-7,2170;-3,0505;1,4025;0,2969;-0,2908;
11,238800;0,6381;0,1818;-0,0332;5,5469;-7,2170;-3,0505;0,9872;0,0770;-0,3506;
11,255483;0,6381;0,1818;-0,0332;6,3085;-6,8287;-3,9632;0,9872;0,0770;-0,3506;
11,267570;0,6860;0,3049;-0,4095;6,3085;-6,8287;-3,9632;0,9872;0,0770;-0,3506;
11,273259;0,6860;0,3049;-0,4095;4,8993;-6,5536;-4,5155;0,9872;0,0770;-0,3506;
11,291818;0,6860;0,3049;-0,4095;4,5933;-6,1337;-4,2837;0,9872;0,0770;-0,3506;
11,301159;0,6860;0,3049;-0,4095;4,5933;-6,1337;-4,2837;0,4178;-0,8271;-0,0953;
11,311835;0,6860;0,3049;-0,4095;4,1272;-5,0014;-3,5663;0,4178;-0,8271;-0,0953;
11,321606;0,7007;0,6518;-0,3401;4,1272;-5,0014;-3,5663;0,4178;-0,8271;-0,0953;
11,333391;0,7007;0,6518;-0,3401;4,4598;-3,7874;-2,7316;0,4178;-0,8271;-0,0953;
11,351835;0,7007;0,6518;-0,3401;4,4401;-2,3537;-3,8484;0,4178;-0,8271;-0,0953;
11,361687;0,7007;0,6518;-0,3401;4,4401;-2,3537;-3,8484;-0,0562;-1,4942;-0,2272;
11,371771;0,7007;0,6518;-0,3401;4,0028;-0,9991;-3,7489;-0,0562;-1,4942;-0,2272;
11,386616;0,5648;0,9020;-0,0694;4,0028;-0,9991;-3,7489;-0,0562;-1,4942;-0,2272;
11,391736;0,5648;0,9020;-0,0694;3,2827;-0,4841;-1,7070;-0,0562;-1,4942;-0,2272;
11,411672;0,5648;0,9020;-0,0694;2,6943;-0,3009;0,9171;-0,0562;-1,4942;-0,2272;
11,426677;0,5648;0,9020;-0,0694;2,6943;-0,3009;0,9171;0,1710;-1,7043;-0,3946;
11,431722;0,5648;0,9020;-0,0694;2,5514;0,6161;2,2904;0,1710;-1,7043;-0,3946;
11,451718;0,1857;1,0896;0,1749;2,5514;0,6161;2,2904;0,1710;-1,7043;-0,3946;
11,454411;0,1857;1,0896;0,1749;1,5831;0,6177;3,8003;0,1710;-1,7043;-0,3946;
11,472044;0,1857;1,0896;0,1749;-0,6410;1,3168;2,6365;0,1710;-1,7043;-0,3946;
11,491889;0,1857;1,0896;0,1749;-1,2100;2,8692;0,4483;0,1710;-1,7043;-0,3946;
11,494959;0,1857;1,0896;0,1749;-1,2100;2,8692;0,4483;-0,4753;-1,6787;-1,1655;
11,511898;0,1857;1,0896;0,1749;-2,1401;2,2136;1,2278;-0,4753;-1,6787;-1,1655;
11,516854;-0,4759;0,9684;0,4857;-2,1401;2,2136;1,2278;-0,4753;-1,6787;-1,1655;
11,532262;-0,4759;0,9684;0,4857;-5,2808;0,3281;4,7651;-0,4753;-1,6787;-1,1655;
11,551910;-0,4759;0,9684;0,4857;-7,6759;-1,2641;6,1927;-0,4753;-1,6787;-1,1655;
11,559149;-0,4759;0,9684;0,4857;-7,6759;-1,2641;6,1927;0,0428;-1,0226;-0,7807;
11,572103;-0,4759;0,9684;0,4857;-9,6102;-2,1110;4,8848;0,0428;-1,0226;-0,7807;
11,581742;-0,9303;0,7788;0,3225;-9,6102;-2,1110;4,8848;0,0428;-1,0226;-0,7807;
11,592034;-0,9303;0,7788;0,3225;-9,3609;-1,7787;3,6676;0,0428;-1,0226;-0,7807;
11,611877;-0,9303;0,7788;0,3225;-8,7631;-2,2295;3,0202;0,0428;-1,0226;-0,7807;
11,621853;-0,9303;0,7788;0,3225;-8,7631;-2,2295;3,0202;-0,0257;-0,1857;-0,0367;
11,632084;-0,9303;0,7788;0,3225;-7,4046;-2,5475;2,7911;-0,0257;-0,1857;-0,0367;
11,647336;-0,6127;0,7251;0,2150;-7,4046;-2,5475;2,7911;-0,0257;-0,1857;-0,0367;
11,652224;-0,6127;0,7251;0,2150;-6,0917;-2,3327;2,9071;-0,0257;-0,1857;-0,0367;
11,672184;-0,6127;0,7251;0,2150;-4,5018;-2,5684;1,6808;-0,0257;-0,1857;-0,0367;
11,687630;-0,6127;0,7251;0,2150;-4,5018;-2,5684;1,6808;0,0061;0,2578;0,2773;
11,692019;-0,6127;0,7251;0,2150;-3,3044;-2,3695;0,7982;0,0061;0,2578;0,2773;
11,712042;-0,3117;0,7759;0,0528;-3,3044;-2,3695;0,7982;0,0061;0,2578;0,2773;
11,716075;-0,3117;0,7759;0,0528;-2,3828;-1,8472;-0,0821;0,0061;0,2578;0,2773;
11,734210;-0,3117;0,7759;0,0528;-1,8465;-2,0392;0,4756;0,0061;0,2578;0,2773;
11,754091;-0,3117;0,7759;0,0528;-1,4737;-2,3846;0,6642;0,0061;0,2578;0,2773;
11,769845;-0,3117;0,7759;0,0528;-1,4737;-2,3846;0,6642;-0,1820;0,4643;0,3225;
11,773107;-0,3117;0,7759;0,0528;-1,4535;-2,7360;0,3095;-0,1820;0,4643;0,3225;
11,778835;-0,2414;0,5873;-0,0215;-1,4535;-2,7360;0,3095;-0,1820;0,4643;0,3225;
11,791990;-0,2414;0,5873;-0,0215;-1,1444;-3,6335;-0,3184;-0,1820;0,4643;0,3225;
11,812023;-0,2414;0,5873;-0,0215;-0,5697;-4,7199;-0,2601;-0,1820;0,4643;0,3225;
11,819058;-0,2414;0,5873;-0,0215;-0,5697;-4,7199;-0,2601;-1,0519;0,7697;0,3543;
11,832019;-0,2414;0,5873;-0,0215;-1,1974;-5,3482;0,1054;-1,0519;0,7697;0,3543;
11,841584;-0,4163;0,3303;0,2248;-1,1974;-5,3482;0,1054;-1,0519;0,7697;0,3543;
11,851921;-0,4163;0,3303;0,2248;-2,9665;-6,3089;1,1197;-1,0519;0,7697;0,3543;
11,871893;-0,4163;0,3303;0,2248;-1,1343;-6,1036;1,6852;-1,0519;0,7697;0,3543;
11,882058;-0,4163;0,3303;0,2248;-1,1343;-6,1036;1,6852;-1,0263;1,0751;0,9102;
11,891837;-0,4163;0,3303;0,2248;1,3773;-5,3887;2,4464;-1,0263;1,0751;0,9102;
11,906618;-0,0889;0,5639;0,2414;1,3773;-5,3887;2,4464;-1,0263;1,0751;0,9102;
11,911948;-0,0889;0,5639;0,2414;1,0521;-5,0995;1,0966;-1,0263;1,0751;0,9102;
11,932504;-0,0889;0,5639;0,2414;0,0332;-3,6799;0,3249;-1,0263;1,0751;0,9102;
11,947960;-0,0889;0,5639;0,2414;0,0332;-3,6799;0,3249;-2,1551;2,1820;1,1558;
11,954200;-0,0889;0,5639;0,2414;0,2937;-3,1530;0,3287;-2,1551;2,1820;1,1558;
11,972919;0,1143;0,9039;0,6313;0,2937;-3,1530;0,3287;-2,1551;2,1820;1,1558;
11,981857;0,1143;0,9039;0,6313;1,5257;-1,5126;1,9941;-2,1551;2,1820;1,1558;
11,996649;0,1143;0,9039;0,6313;1,7304;-0,2736;2,9144;-2,1551;2,1820;1,1558;
12,014801;0,1143;0,9039;0,6313;1,9588;0,8495;2,0690;-2,1551;2,1820;1,1558;
12,028592;0,1143;0,9039;0,6313;1,9588;0,8495;2,0690;-1,5748;1,6139;1,8534;
12,032741;0,1143;0,9039;0,6313;3,9754;3,5483;2,3999;-1,5748;1,6139;1,8534;
12,038246;0,6430;1,4258;0,6420;3,9754;3,5483;2,3999;-1,5748;1,6139;1,8534;
12,052083;0,6430;1,4258;0,6420;5,6182;4,9321;2,4800;-1,5748;1,6139;1,8534;
12,071882;0,6430;1,4258;0,6420;6,1468;5,7594;0,4969;-1,5748;1,6139;1,8534;
12,079142;0,6430;1,4258;0,6420;6,1468;5,7594;0,4969;-1,0873;0,5925;1,1044;
12,091769;0,6430;1,4258;0,6420;5,9330;5,8918;-0,1540;-1,0873;0,5925;1,1044;
12,101785;0,7828;1,4385;0,5756;5,9330;5,8918;-0,1540;-1,0873;0,5925;1,1044;
12,111838;0,7828;1,4385;0,5756;6,6009;5,7862;1,6198;-1,0873;0,5925;1,1044;
12,132242;0,7828;1,4385;0,5756;5,7925;5,2392;0,5642;-1,0873;0,5925;1,1044;
12,142226;0,7828;1,4385;0,5756;5,7925;5,2392;0,5642;-0,7416;-0,2187;0,6096;
12,152334;0,7828;1,4385;0,5756;3,9946;5,0265;2,3470;-0,7416;-0,2187;0,6096;
12,167191;0,7446;1,5020;1,4844;3,9946;5,0265;2,3470;-0,7416;-0,2187;0,6096;
12,172644;0,7446;1,5020;1,4844;3,5023;6,6355;5,8085;-0,7416;-0,2187;0,6096;
12,193376;0,7446;1,5020;1,4844;6,2392;5,1390;9,8418;-0,7416;-0,2187;0,6096;
12,210669;0,7446;1,5020;1,4844;6,2392;5,1390;9,8418;0,1588;0,2602;0,2749;
12,217968;0,7446;1,5020;1,4844;3,2987;2,0964;-0,8268;0,1588;0,2602;0,2749;
12,233779;0,5736;1,0085;0,2511;3,2987;2,0964;-0,8268;0,1588;0,2602;0,2749;
12,242584;0,5736;1,0085;0,2511;2,2648;1,5487;-4,8425;0,1588;0,2602;0,2749;
12,252122;0,5736;1,0085;0,2511;3,5731;1,4120;-1,8557;0,1588;0,2602;0,2749;
12,271913;0,5736;1,0085;0,2511;2,9106;0,9846;-0,2468;0,1588;0,2602;0,2749;
12,274710;0,5736;1,0085;0,2511;2,9106;0,9846;-0,2468;0,2407;-0,4924;-0,0965;
12,292322;0,5736;1,0085;0,2511;2,5997;0,7335;0,4665;0,2407;-0,4924;-0,0965;
12,296635;0,4740;0,9235;0,3772;2,5997;0,7335;0,4665;0,2407;-0,4924;-0,0965;
12,311940;0,4740;0,9235;0,3772;2,2462;0,5861;-0,1488;0,2407;-0,4924;-0,0965;
12,332130;0,4740;0,9235;0,3772;1,9983;0,1872;-0,6368;0,2407;-0,4924;-0,0965;
12,339566;0,4740;0,9235;0,3772;1,9983;0,1872;-0,6368;0,2651;-0,8076;-0,2346;
12,351992;0,4740;0,9235;0,3772;1,5721;-0,1508;-0,5438;0,2651;-0,8076;-0,2346;
12,362040;0,2570;0,7016;0,2179;1,5721;-0,1508;-0,5438;0,2651;-0,8076;-0,2346;
12,373291;0,2570;0,7016;0,2179;0,4624;-1,1550;-1,1584;0,2651;-0,8076;-0,2346;
12,392369;0,2570;0,7016;0,2179;-0,7197;-2,3692;-1,6447;0,2651;-0,8076;-0,2346;
12,402690;0,2570;0,7016;0,2179;-0,7197;-2,3692;-1,6447;-0,1161;-0,4801;0,1307;
12,413417;0,2570;0,7016;0,2179;-1,0783;-3,0561;-1,8582;-0,1161;-0,4801;0,1307;
12,431980;0,2443;0,5600;0,1466;-1,0783;-3,0561;-1,8582;-0,1161;-0,4801;0,1307;
12,438065;0,2443;0,5600;0,1466;-0,9553;-3,4136;-2,2305;-0,1161;-0,4801;0,1307;
12,453314;0,2443;0,5600;0,1466;-0,3585;-3,0057;-1,8811;-0,1161;-0,4801;0,1307;
12,468056;0,2443;0,5600;0,1466;-0,3585;-3,0057;-1,8811;-1,1949;-0,1857;-0,3335;
12,474792;0,2443;0,5600;0,1466;-1,1331;-2,8638;-0,4495;-1,1949;-0,1857;-0,3335;
12,492929;0,1495;0,6586;0,6420;-1,1331;-2,8638;-0,4495;-1,1949;-0,1857;-0,3335;
12,498155;0,1495;0,6586;0,6420;-1,7247;-2,8245;1,2336;-1,1949;-0,1857;-0,3335;
12,513524;0,1495;0,6586;0,6420;-1,1429;-1,7751;1,8266;-1,1949;-0,1857;-0,3335;
12,533719;0,1495;0,6586;0,6420;-1,3011;-1,1681;1,3075;-1,1949;-0,1857;-0,3335;
12,542564;0,1495;0,6586;0,6420;-1,3011;-1,1681;1,3075;-1,5748;0,7575;-0,8222;
12,557136;0,1495;0,6586;0,6420;-1,9440;-0,5043;2,3654;-1,5748;0,7575;-0,8222;
12,566359;-0,1251;0,9274;1,0574;-1,9440;-0,5043;2,3654;-1,5748;0,7575;-0,8222;
12,574043;-0,1251;0,9274;1,0574;-2,9294;0,8544;4,4077;-1,5748;0,7575;-0,8222;
12,592090;-0,1251;0,9274;1,0574;-2,8226;2,7264;6,2618;-1,5748;0,7575;-0,8222;
12,598915;-0,1251;0,9274;1,0574;-2,8226;2,7264;6,2618;0,5791;-0,6267;-0,0648;
12,611876;-0,1251;0,9274;1,0574;-1,7047;4,0197;8,2131;0,5791;-0,6267;-0,0648;
12,621711;0,1759;0,7808;0,5560;-1,7047;4,0197;8,2131;0,5791;-0,6267;-0,0648;
12,632179;0,1759;0,7808;0,5560;0,0412;0,8019;4,2470;0,5791;-0,6267;-0,0648;
12,651941;0,1759;0,7808;0,5560;-0,2633;-0,8372;-3,5753;0,5791;-0,6267;-0,0648;
12,662022;0,1759;0,7808;0,5560;-0,2633;-0,8372;-3,5753;-0,3690;-0,0220;-0,1002;
12,671880;0,1759;0,7808;0,5560;-0,5690;-1,4714;-4,8162;-0,3690;-0,0220;-0,1002;
12,687258;0,1476;0,7691;0,6733;-0,5690;-1,4714;-4,8162;-0,3690;-0,0220;-0,1002;
12,691807;0,1476;0,7691;0,6733;-0,4074;-1,1648;-0,9440;-0,3690;-0,0220;-0,1002;
12,712147;0,1476;0,7691;0,6733;-0,0315;-0,0787;1,7598;-0,3690;-0,0220;-0,1002;
12,727153;0,1476;0,7691;0,6733;-0,0315;-0,0787;1,7598;0,3531;-0,1759;0,0086;
12,732435;0,1476;0,7691;0,6733;1,3879;0,4725;3,1106;0,3531;-0,1759;0,0086;
12,752276;0,2981;0,8551;0,5326;1,3879;0,4725;3,1106;0,3531;-0,1759;0,0086;
12,756912;0,2981;0,8551;0,5326;1,5461;0,4360;1,5671;0,3531;-0,1759;0,0086;
12,773616;0,2981;0,8551;0,5326;1,0379;0,4519;-0,0820;0,3531;-0,1759;0,0086;
12,793283;0,2981;0,8551;0,5326;-0,0317;-0,0091;-0,5397;0,3531;-0,1759;0,0086;
12,805160;0,2981;0,8551;0,5326;-0,0317;-0,0091;-0,5397;0,2077;-0,0953;-0,0916;
12,814293;0,2981;0,8551;0,5326;-0,9291;-0,4016;0,1948;0,2077;-0,0953;-0,0916;
12,824350;0,1241;0,7964;0,5130;-0,9291;-0,4016;0,1948;0,2077;-0,0953;-0,0916;
12,833258;0,1241;0,7964;0,5130;-0,7396;-0,2905;0,1060;0,2077;-0,0953;-0,0916;
12,851997;0,1241;0,7964;0,5130;-0,2206;-0,0716;-0,7429;0,2077;-0,0953;-0,0916;
12,858952;0,1241;0,7964;0,5130;-0,2206;-0,0716;-0,7429;-0,0281;0,0562;-0,0171;
12,871932;0,1241;0,7964;0,5130;0,2378;-0,1024;-0,1971;-0,0281;0,0562;-0,0171;
12,882284;0,1964;0,7818;0,5619;0,2378;-0,1024;-0,1971;-0,0281;0,0562;-0,0171;
12,892017;0,1964;0,7818;0,5619;-0,0395;-0,2775;0,1349;-0,0281;0,0562;-0,0171;
12,911770;0,1964;0,7818;0,5619;0,0950;-0,2656;0,2519;-0,0281;0,0562;-0,0171;
12,922084;0,1964;0,7818;0,5619;0,0950;-0,2656;0,2519;0,0476;-0,1100;0,1026;
12,932425;0,1964;0,7818;0,5619;0,1493;-0,2489;-0,1860;0,0476;-0,1100;0,1026;
12,949444;0,2619;0,8375;0,5267;0,1493;-0,2489;-0,1860;0,0476;-0,1100;0,1026;
12,954618;0,2619;0,8375;0,5267;0,4960;0,0221;-0,1665;0,0476;-0,1100;0,1026;
12,972323;0,2619;0,8375;0,5267;0,5790;0,2003;0,1073;0,0476;-0,1100;0,1026;
12,987708;0,2619;0,8375;0,5267;0,5790;0,2003;0,1073;-0,0134;-0,0281;-0,0232;
12,993413;0,2619;0,8375;0,5267;0,4969;0,1689;0,1628;-0,0134;-0,0281;-0,0232;
13,013083;0,2121;0,8121;0,5385;0,4969;0,1689;0,1628;-0,0134;-0,0281;-0,0232;
13,021855;0,2121;0,8121;0,5385;0,1904;0,0713;-0,1899;-0,0134;-0,0281;-0,0232;
13,034769;0,2121;0,8121;0,5385;0,0991;-0,0444;0,1258;-0,0134;-0,0281;-0,0232;
13,052187;0,2121;0,8121;0,5385;0,2264;-0,0534;0,1147;-0,0134;-0,0281;-0,0232;
13,055668;0,2121;0,8121;0,5385;0,2264;-0,0534;0,1147;-0,0195;-0,0061;-0,0757;
13,071824;0,2121;0,8121;0,5385;0,3551;0,1297;0,1960;-0,0195;-0,0061;-0,0757;
13,076764;0,1925;0,8003;0,5267;0,3551;0,1297;0,1960;-0,0195;-0,0061;-0,0757;
13,092204;0,1925;0,8003;0,5267;-0,0605;-0,1225;-0,0261;-0,0195;-0,0061;-0,0757;
13,111827;0,1925;0,8003;0,5267;-0,1732;-0,1555;0,1585;-0,0195;-0,0061;-0,0757;
13,119091;0,1925;0,8003;0,5267;-0,1732;-0,1555;0,1585;-0,0086;-0,0110;0,0220;
13,132143;0,1925;0,8003;0,5267;0,0240;0,0044;0,0490;-0,0086;-0,0110;0,0220;
13,141519;0,2668;0,8502;0,5639;0,0240;0,0044;0,0490;-0,0086;-0,0110;0,0220;
13,152020;0,2668;0,8502;0,5639;0,5272;0,3440;0,3341;-0,0086;-0,0110;0,0220;
13,172336;0,2668;0,8502;0,5639;0,5495;0,3069;0,1646;-0,0086;-0,0110;0,0220;
13,182172;0,2668;0,8502;0,5639;0,5495;0,3069;0,1646;-0,0770;0,0415;-0,0977;
13,192109;0,2668;0,8502;0,5639;0,0650;-0,0119;-0,2061;-0,0770;0,0415;-0,0977;
13,207406;0,1554;0,7935;0,5707;0,0650;-0,0119;-0,2061;-0,0770;0,0415;-0,0977;
13,212962;0,1554;0,7935;0,5707;-0,1642;-0,1862;0,0491;-0,0770;0,0415;-0,0977;
13,232032;0,1554;0,7935;0,5707;-0,3924;-0,2404;0,3994;-0,0770;0,0415;-0,0977;
13,248293;0,1554;0,7935;0,5707;-0,3924;-0,2404;0,3994;0,0538;0,0037;0,0354;
13,251830;0,1554;0,7935;0,5707;-0,2137;-0,1306;0,2574;0,0538;0,0037;0,0354;
13,271859;0,1935;0,8052;0,5052;-0,2137;-0,1306;0,2574;0,0538;0,0037;0,0354;
13,274526;0,1935;0,8052;0,5052;-0,1062;-0,1593;0,0014;0,0538;0,0037;0,0354;
13,292036;0,1935;0,8052;0,5052;-0,0589;-0,0912;-0,2483;0,0538;0,0037;0,0354;
13,312047;0,1935;0,8052;0,5052;0,1088;0,0404;0,0267;0,0538;0,0037;0,0354;
13,316061;0,1935;0,8052;0,5052;0,1088;0,0404;0,0267;0,0293;-0,0049;0,0428;
13,332093;0,1935;0,8052;0,5052;0,4036;0,2618;0,1935;0,0293;-0,0049;0,0428;
13,336659;0,2238;0,8218;0,5336;0,4036;0,2618;0,1935;0,0293;-0,0049;0,0428;
13,351952;0,2238;0,8218;0,5336;0,2615;0,1534;0,1117;0,0293;-0,0049;0,0428;
13,372074;0,2238;0,8218;0,5336;-0,0320;-0,0434;-0,1324;0,0293;-0,0049;0,0428;
13,379096;0,2238;0,8218;0,5336;-0,0320;-0,0434;-0,1324;0,0000;0,0049;0,0159;
13,393160;0,2238;0,8218;0,5336;0,1070;0,0265;-0,0236;0,0000;0,0049;0,0159;
13,401608;0,2209;0,8131;0,5629;0,1070;0,0265;-0,0236;0,0000;0,0049;0,0159;
13,412011;0,2209;0,8131;0,5629;0,0617;-0,0158;0,2975;0,0000;0,0049;0,0159;
13,432004;0,2209;0,8131;0,5629;0,2216;0,0421;0,1188;0,0000;0,0049;0,0159;
13,442343;0,2209;0,8131;0,5629;0,2216;0,0421;0,1188;-0,0134;0,0318;0,0195;
13,451881;0,2209;0,8131;0,5629;0,0179;0,0033;-0,1278;-0,0134;0,0318;0,0195;
13,466799;0,2209;0,8228;0,5404;0,0179;0,0033;-0,1278;-0,0134;0,0318;0,0195;
13,472027;0,2209;0,8228;0,5404;0,0330;-0,0316;0,0733;-0,0134;0,0318;0,0195;
13,492086;0,2209;0,8228;0,5404;0,0776;0,0844;0,0677;-0,0134;0,0318;0,0195;
13,508116;0,2209;0,8228;0,5404;0,0776;0,0844;0,0677;-0,0195;0,0342;-0,0049;
13,512465;0,2209;0,8228;0,5404;0,2482;0,0764;-0,2273;-0,0195;0,0342;-0,0049;
13,532109;0,2209;0,8189;0,5170;0,2482;0,0764;-0,2273;-0,0195;0,0342;-0,0049;
13,535917;0,2209;0,8189;0,5170;0,0646;0,0687;-0,0259;-0,0195;0,0342;-0,0049;
13,552305;0,2209;0,8189;0,5170;0,1023;0,0366;-0,0759;-0,0195;0,0342;-0,0049;
13,572394;0,2209;0,8189;0,5170;0,0064;-0,0128;0,0847;-0,0195;0,0342;-0,0049;
13,576909;0,2209;0,8189;0,5170;0,0064;-0,0128;0,0847;0,0086;-0,0220;0,0098;
13,594943;0,2209;0,8189;0,5170;-0,0238;-0,0325;0,2464;0,0086;-0,0220;0,0098;
13,604083;0,2091;0,8179;0,5502;-0,0238;-0,0325;0,2464;0,0086;-0,0220;0,0098;
13,613613;0,2091;0,8179;0,5502;-0,0267;0,0249;0,1613;0,0086;-0,0220;0,0098;
13,633824;0,2091;0,8179;0,5502;-0,1319;-0,0073;0,2928;0,0086;-0,0220;0,0098;
13,644036;0,2091;0,8179;0,5502;-0,1319;-0,0073;0,2928;0,0061;0,0318;0,0269;
13,652976;0,2091;0,8179;0,5502;-0,0148;-0,0261;-0,0415;0,0061;0,0318;0,0269;
13,663016;0,2081;0,8101;0,5267;-0,0148;-0,0261;-0,0415;0,0061;0,0318;0,0269;
13,675735;0,2081;0,8101;0,5267;-0,0305;-0,0496;-0,2097;0,0061;0,0318;0,0269;
13,693348;0,2081;0,8101;0,5267;-0,0287;0,0014;0,1040;0,0061;0,0318;0,0269;
13,702872;0,2081;0,8101;0,5267;-0,0287;0,0014;0,1040;0,0232;0,0134;-0,0012;
13,713563;0,2081;0,8101;0,5267;0,3219;0,1243;0,2322;0,0232;0,0134;-0,0012;
13,733473;0,2287;0,8179;0,5199;0,3219;0,1243;0,2322;0,0232;0,0134;-0,0012;
13,741368;0,2287;0,8179;0,5199;0,1405;0,1737;0,0826;0,0232;0,0134;-0,0012;
13,751991;0,2287;0,8179;0,5199;0,0969;0,0528;-0,1360;0,0232;0,0134;-0,0012;
13,767109;0,2287;0,8179;0,5199;0,0969;0,0528;-0,1360;-0,0122;-0,0220;0,0012;
13,771966;0,2287;0,8179;0,5199;0,1220;0,1188;-0,1106;-0,0122;-0,0220;0,0012;
13,791992;0,2306;0,8179;0,5424;0,1220;0,1188;-0,1106;-0,0122;-0,0220;0,0012;
13,794860;0,2306;0,8179;0,5424;-0,0177;-0,0097;-0,1176;-0,0122;-0,0220;0,0012;
13,812023;0,2306;0,8179;0,5424;0,1618;0,0393;0,1653;-0,0122;-0,0220;0,0012;
13,832755;0,2306;0,8179;0,5424;-0,0448;-0,0464;0,2897;-0,0122;-0,0220;0,0012;
13,837995;0,2306;0,8179;0,5424;-0,0448;-0,0464;0,2897;0,0195;0,0147;0,0195;
13,852565;0,2306;0,8179;0,5424;-0,0961;-0,0872;0,0284;0,0195;0,0147;0,0195;
13,857601;0,2218;0,8248;0,5052;-0,0961;-0,0872;0,0284;0,0195;0,0147;0,0195;
13,874561;0,2218;0,8248;0,5052;0,0424;0,0710;-0,2199;0,0195;0,0147;0,0195;
13,893391;0,2218;0,8248;0,5052;0,0010;0,0906;0,1927;0,0195;0,0147;0,0195;
13,905101;0,2218;0,8248;0,5052;0,0010;0,0906;0,1927;0,0122;0,0061;0,0147;
13,913055;0,2218;0,8248;0,5052;-0,0561;0,0243;0,1100;0,0122;0,0061;0,0147;
13,926990;0,2218;0,8209;0,5404;-0,0561;0,0243;0,1100;0,0122;0,0061;0,0147;
13,932416;0,2218;0,8209;0,5404;0,0449;0,0650;0,0574;0,0122;0,0061;0,0147;
13,951885;0,2218;0,8209;0,5404;-0,0349;0,0305;0,1644;0,0122;0,0061;0,0147;
13,962035;0,2218;0,8209;0,5404;-0,0349;0,0305;0,1644;0,0257;-0,0098;0,0367;
13,971897;0,2218;0,8209;0,5404;-0,0476;-0,0482;0,0190;0,0257;-0,0098;0,0367;
13,986653;0,2267;0,8248;0,5013;-0,0476;-0,0482;0,0190;0,0257;-0,0098;0,0367;
13,992199;0,2267;0,8248;0,5013;0,0760;0,0290;-0,3310;0,0257;-0,0098;0,0367;
14,012093;0,2267;0,8248;0,5013;0,1161;0,1039;-0,1057;0,0257;-0,0098;0,0367;
14,027022;0,2267;0,8248;0,5013;0,1161;0,1039;-0,1057;0,0061;0,0000;0,0159;
14,032181;0,2267;0,8248;0,5013;0,0019;0,0085;0,3442;0,0061;0,0000;0,0159;
14,052512;0,2111;0,8121;0,5443;0,0019;0,0085;0,3442;0,0061;0,0000;0,0159;
14,055536;0,2111;0,8121;0,5443;-0,0411;0,0293;-0,0972;0,0061;0,0000;0,0159;
14,072724;0,2111;0,8121;0,5443;-0,0412;0,0064;0,1478;0,0061;0,0000;0,0159;
14,093348;0,2111;0,8121;0,5443;0,0723;0,1125;0,1325;0,0061;0,0000;0,0159;
14,100984;0,2111;0,8121;0,5443;0,0723;0,1125;0,1325;-0,0098;0,0159;0,0000;
14,112875;0,2111;0,8121;0,5443;0,0695;0,0816;-0,0308;-0,0098;0,0159;0,0000;
14,119147;0,2267;0,8199;0,5267;0,0695;0,0816;-0,0308;-0,0098;0,0159;0,0000;
14,133223;0,2267;0,8199;0,5267;0,0781;0,0617;0,0092;-0,0098;0,0159;0,0000;
14,155561;0,2267;0,8199;0,5267;0,0316;0,0391;0,1939;-0,0098;0,0159;0,0000;
14,168362;0,2267;0,8199;0,5267;0,0316;0,0391;0,1939;0,0159;0,0562;0,0257;
14,172822;0,2267;0,8199;0,5267;-0,2033;-0,0407;0,1960;0,0159;0,0562;0,0257;
14,183618;0,1583;0,8414;0,5414;-0,2033;-0,0407;0,1960;0,0159;0,0562;0,0257;
14,193746;0,1583;0,8414;0,5414;-0,4079;0,1785;0,0363;0,0159;0,0562;0,0257;
14,211935;0,1583;0,8414;0,5414;-0,7306;0,3056;0,2287;0,0159;0,0562;0,0257;
14,222129;0,1583;0,8414;0,5414;-0,7306;0,3056;0,2287;0,0977;0,1588;0,2175;
14,233201;0,1583;0,8414;0,5414;-1,4349;0,0448;-0,0273;0,0977;0,1588;0,2175;
14,246819;0,1134;1,0114;0,5648;-1,4349;0,0448;-0,0273;0,0977;0,1588;0,2175;
14,252587;0,1134;1,0114;0,5648;-0,5329;0,6684;0,0844;0,0977;0,1588;0,2175;
14,271846;0,1134;1,0114;0,5648;-1,2140;2,3893;0,4717;0,0977;0,1588;0,2175;
14,286948;0,1134;1,0114;0,5648;-1,2140;2,3893;0,4717;0,2663;-0,5742;0,1002;
14,291933;0,1134;1,0114;0,5648;-1,7202;5,3148;1,8577;0,2663;-0,5742;0,1002;
14,312364;0,0899;1,5948;1,4258;-1,7202;5,3148;1,8577;0,2663;-0,5742;0,1002;
14,314638;0,0899;1,5948;1,4258;-1,1553;6,7832;5,7305;0,2663;-0,5742;0,1002;
14,331980;0,0899;1,5948;1,4258;-1,1998;7,4900;9,0714;0,2663;-0,5742;0,1002;
14,351735;0,0899;1,5948;1,4258;0,2820;10,1404;8,0809;0,2663;-0,5742;0,1002;
14,354204;0,0899;1,5948;1,4258;0,2820;10,1404;8,0809;2,0183;-0,1417;-0,0428;
14,371669;0,0899;1,5948;1,4258;1,7035;12,6207;7,2302;2,0183;-0,1417;-0,0428;
14,376623;0,4691;1,9466;1,3085;1,7035;12,6207;7,2302;2,0183;-0,1417;-0,0428;
14,392205;0,4691;1,9466;1,3085;2,4910;11,2414;8,3999;2,0183;-0,1417;-0,0428;
14,411987;0,4691;1,9466;1,3085;3,0075;7,2988;9,3348;2,0183;-0,1417;-0,0428;
14,419435;0,4691;1,9466;1,3085;3,0075;7,2988;9,3348;2,7648;0,5388;-1,2401;
14,432186;0,4691;1,9466;1,3085;2,7787;2,7687;7,8040;2,7648;0,5388;-1,2401;
14,442223;0,2414;0,5199;0,5336;2,7787;2,7687;7,8040;2,7648;0,5388;-1,2401;
14,452587;0,2414;0,5199;0,5336;1,7399;-2,0655;4,5218;2,7648;0,5388;-1,2401;
14,472251;0,2414;0,5199;0,5336;0,3843;-5,7885;0,2276;2,7648;0,5388;-1,2401;
14,482328;0,2414;0,5199;0,5336;0,3843;-5,7885;0,2276;1,8021;0,6927;-0,6158;
14,492983;0,2414;0,5199;0,5336;-0,8030;-7,7161;-2,6108;1,8021;0,6927;-0,6158;
14,508011;0,1222;0,0000;-0,2179;-0,8030;-7,7161;-2,6108;1,8021;0,6927;-0,6158;
14,517748;0,1222;0,0000;-0,2179;-0,5158;-8,9285;-2,8749;1,8021;0,6927;-0,6158;
14,534777;0,1222;0,0000;-0,2179;0,3263;-9,6739;-3,7391;1,8021;0,6927;-0,6158;
14,552299;0,1222;0,0000;-0,2179;0,3263;-9,6739;-3,7391;1,0263;-0,1063;-0,0086;
14,559751;0,1222;0,0000;-0,2179;0,4131;-9,5289;-3,3316;1,0263;-0,1063;-0,0086;
14,573011;0,3840;0,1524;-0,2932;0,4131;-9,5289;-3,3316;1,0263;-0,1063;-0,0086;
14,582670;0,3840;0,1524;-0,2932;1,8895;-9,0541;-3,9011;1,0263;-0,1063;-0,0086;
14,593586;0,3840;0,1524;-0,2932;1,9423;-8,0473;-2,5396;1,0263;-0,1063;-0,0086;
14,616759;0,3840;0,1524;-0,2932;2,2385;-7,3812;-1,3196;1,0263;-0,1063;-0,0086;
14,627027;0,3840;0,1524;-0,2932;2,2385;-7,3812;-1,3196;0,2517;0,1649;-0,0684;
14,633408;0,3840;0,1524;-0,2932;2,3219;-5,8834;-1,1683;0,2517;0,1649;-0,0684;
14,637744;0,5492;0,5228;-0,2306;2,3219;-5,8834;-1,1683;0,2517;0,1649;-0,0684;
14,652101;0,5492;0,5228;-0,2306;2,9092;-4,6969;-1,5992;0,2517;0,1649;-0,0684;
14,671822;0,5492;0,5228;-0,2306;3,2334;-3,3343;-1,4184;0,2517;0,1649;-0,0684;
14,679180;0,5492;0,5228;-0,2306;3,2334;-3,3343;-1,4184;0,0489;-0,0586;-0,0281;
14,692043;0,5492;0,5228;-0,2306;3,1628;-2,6096;-1,3757;0,0489;-0,0586;-0,0281;
14,701720;0,7466;0,8863;-0,3225;3,1628;-2,6096;-1,3757;0,0489;-0,0586;-0,0281;
14,712000;0,7466;0,8863;-0,3225;3,9954;-1,4425;-2,0555;0,0489;-0,0586;-0,0281;
14,732140;0,7466;0,8863;-0,3225;4,8501;-0,0839;-2,2599;0,0489;-0,0586;-0,0281;
14,744424;0,7466;0,8863;-0,3225;4,8501;-0,0839;-2,2599;-0,3555;-0,6720;-0,5180;
14,752434;0,7466;0,8863;-0,3225;4,7552;0,4086;-2,3143;-0,3555;-0,6720;-0,5180;
14,767266;0,7407;0,9899;-0,2326;4,7552;0,4086;-2,3143;-0,3555;-0,6720;-0,5180;
14,772231;0,7407;0,9899;-0,2326;5,1357;0,2547;-2,2276;-0,3555;-0,6720;-0,5180;
14,793057;0,7407;0,9899;-0,2326;4,1700;0,4325;-0,8780;-0,3555;-0,6720;-0,5180;
14,807840;0,7407;0,9899;-0,2326;4,1700;0,4325;-0,8780;-0,2786;-1,5003;-0,8845;
14,813206;0,7407;0,9899;-0,2326;2,9632;0,5747;0,7445;-0,2786;-1,5003;-0,8845;
14,832998;0,3606;1,0447;0,0088;2,9632;0,5747;0,7445;-0,2786;-1,5003;-0,8845;
14,838731;0,3606;1,0447;0,0088;2,8388;0,4106;-0,2578;-0,2786;-1,5003;-0,8845;
14,853441;0,3606;1,0447;0,0088;1,1698;0,8621;1,1127;-0,2786;-1,5003;-0,8845;
14,873444;0,3606;1,0447;0,0088;-1,6033;0,1425;2,9907;-0,2786;-1,5003;-0,8845;
14,883403;0,3606;1,0447;0,0088;-1,6033;0,1425;2,9907;-0,5705;-1,7214;-1,3561;
14,896556;0,3606;1,0447;0,0088;-4,2197;-0,7411;4,5882;-0,5705;-1,7214;-1,3561;
14,907730;-0,6098;0,8619;0,5297;-4,2197;-0,7411;4,5882;-0,5705;-1,7214;-1,3561;
14,913189;-0,6098;0,8619;0,5297;-6,2984;-1,0366;5,1682;-0,5705;-1,7214;-1,3561;
14,932072;-0,6098;0,8619;0,5297;-8,1475;-1,7542;6,0289;-0,5705;-1,7214;-1,3561;
14,943117;-0,6098;0,8619;0,5297;-8,1475;-1,7542;6,0289;-0,5009;-0,4960;-0,9004;
14,951809;-0,6098;0,8619;0,5297;-8,4915;-2,7139;6,4852;-0,5009;-0,4960;-0,9004;
14,961892;-1,0671;0,5433;0,6948;-8,4915;-2,7139;6,4852;-0,5009;-0,4960;-0,9004;
14,971765;-1,0671;0,5433;0,6948;-9,6848;-3,8964;6,9145;-0,5009;-0,4960;-0,9004;
14,992103;-1,0671;0,5433;0,6948;-10,1492;-4,6407;4,8670;-0,5009;-0,4960;-0,9004;
15,001966;-1,0671;0,5433;0,6948;-10,1492;-4,6407;4,8670;0,1210;0,1393;0,5681;
15,019983;-1,0671;0,5433;0,6948;-10,0641;-5,2189;4,1497;0,1210;0,1393;0,5681;
15,030383;-0,7955;0,4398;0,3332;-10,0641;-5,2189;4,1497;0,1210;0,1393;0,5681;
15,037097;-0,7955;0,4398;0,3332;-7,8621;-5,2797;3,5796;0,1210;0,1393;0,5681;
15,054997;-0,7955;0,4398;0,3332;-6,1907;-5,2631;1,6714;0,1210;0,1393;0,5681;
15,067046;-0,7955;0,4398;0,3332;-6,1907;-5,2631;1,6714;0,0538;0,4594;1,2120;
15,074712;-0,7955;0,4398;0,3332;-3,5588;-4,6703;0,0008;0,0538;0,4594;1,2120;
15,092101;-0,3283;0,4456;0,0332;-3,5588;-4,6703;0,0008;0,0538;0,4594;1,2120;
15,094302;-0,3283;0,4456;0,0332;-2,6416;-4,9647;-0,9853;0,0538;0,4594;1,2120;
15,111850;-0,3283;0,4456;0,0332;-2,0862;-5,2205;-0,7838;0,0538;0,4594;1,2120;
15,132162;-0,3283;0,4456;0,0332;-1,0307;-5,0263;0,4162;0,0538;0,4594;1,2120;
15,135210;-0,3283;0,4456;0,0332;-1,0307;-5,0263;0,4162;-0,8454;1,3329;1,1350;
15,152054;-0,3283;0,4456;0,0332;-0,6022;-4,7301;0,9377;-0,8454;1,3329;1,1350;
15,157268;-0,3391;0,4222;0,2590;-0,6022;-4,7301;0,9377;-0,8454;1,3329;1,1350;
15,172746;-0,3391;0,4222;0,2590;-2,6616;-5,3749;0,3413;-0,8454;1,3329;1,1350;
15,192476;-0,3391;0,4222;0,2590;-2,0329;-4,6986;1,5712;-0,8454;1,3329;1,1350;
15,199515;-0,3391;0,4222;0,2590;-2,0329;-4,6986;1,5712;-1,0886;1,4184;1,9059;
15,212283;-0,3391;0,4222;0,2590;-1,0736;-4,0115;2,8603;-1,0886;1,4184;1,9059;
15,223405;0,1710;0,8062;0,5717;-1,0736;-4,0115;2,8603;-1,0886;1,4184;1,9059;
15,232985;0,1710;0,8062;0,5717;0,8698;-2,2461;2,4403;-1,0886;1,4184;1,9059;
15,253104;0,1710;0,8062;0,5717;2,3002;-0,5209;2,4213;-1,0886;1,4184;1,9059;
15,262698;0,1710;0,8062;0,5717;2,3002;-0,5209;2,4213;-1,2779;1,8802;1,9108;
15,274736;0,1710;0,8062;0,5717;3,0627;0,5932;1,8077;-1,2779;1,8802;1,9108;
15,292466;0,6538;1,2499;0,7104;3,0627;0,5932;1,8077;-1,2779;1,8802;1,9108;
15,302465;0,6538;1,2499;0,7104;3,8133;2,0227;2,5905;-1,2779;1,8802;1,9108;
15,313302;0,6538;1,2499;0,7104;5,7646;3,7812;2,9917;-1,2779;1,8802;1,9108;
15,328038;0,6538;1,2499;0,7104;5,7646;3,7812;2,9917;-0,5986;1,1900;1,3573;
15,332029;0,6538;1,2499;0,7104;7,9976;4,8245;1,1449;-0,5986;1,1900;1,3573;
15,351876;0,9225;1,3632;0,3626;7,9976;4,8245;1,1449;-0,5986;1,1900;1,3573;
15,355097;0,9225;1,3632;0,3626;8,7011;5,6137;0,2174;-0,5986;1,1900;1,3573;
15,372017;0,9225;1,3632;0,3626;6,9808;4,8504;-0,6696;-0,5986;1,1900;1,3573;
15,392059;0,9225;1,3632;0,3626;5,5916;3,8422;-0,1713;-0,5986;1,1900;1,3573;
15,394756;0,9225;1,3632;0,3626;5,5916;3,8422;-0,1713;-0,4862;0,2590;0,9493;
15,412049;0,9225;1,3632;0,3626;4,1959;2,8962;-0,4662;-0,4862;0,2590;0,9493;
15,416686;0,8082;1,1746;0,6332;4,1959;2,8962;-0,4662;-0,4862;0,2590;0,9493;
15,431912;0,8082;1,1746;0,6332;4,6087;3,0955;1,3486;-0,4862;0,2590;0,9493;
15,451863;0,8082;1,1746;0,6332;5,3772;3,4893;2,1184;-0,4862;0,2590;0,9493;
15,458903;0,8082;1,1746;0,6332;5,3772;3,4893;2,1184;-0,1845;0,0318;0,4459;
15,472193;0,8082;1,1746;0,6332;4,9719;3,4204;0,2892;-0,1845;0,0318;0,4459;
15,481905;0,5336;0,9733;0,5394;4,9719;3,4204;0,2892;-0,1845;0,0318;0,4459;
15,492492;0,5336;0,9733;0,5394;3,3166;2,4718;0,6830;-0,1845;0,0318;0,4459;
15,512349;0,5336;0,9733;0,5394;0,7118;0,6176;0,8922;-0,1845;0,0318;0,4459;
15,522668;0,5336;0,9733;0,5394;0,7118;0,6176;0,8922;-0,1087;-0,1539;0,2566;
15,533213;0,5336;0,9733;0,5394;-0,1432;-0,2385;-0,5872;-0,1087;-0,1539;0,2566;
15,548148;0,3743;0,7652;0,3547;-0,1432;-0,2385;-0,5872;-0,1087;-0,1539;0,2566;
15,554614;0,3743;0,7652;0,3547;0,1086;-0,4620;-0,5898;-0,1087;-0,1539;0,2566;
15,572986;0,3743;0,7652;0,3547;0,0187;-0,4835;-0,7641;-0,1087;-0,1539;0,2566;
15,590607;0,3743;0,7652;0,3547;0,0187;-0,4835;-0,7641;-0,2761;-0,2700;0,0525;
15,598332;0,3743;0,7652;0,3547;0,0600;-0,4469;0,2112;-0,2761;-0,2700;0,0525;
15,613217;0,5414;0,8639;0,6714;0,0600;-0,4469;0,2112;-0,2761;-0,2700;0,0525;
15,618949;0,5414;0,8639;0,6714;0,4891;-0,2281;1,9423;-0,2761;-0,2700;0,0525;
15,633580;0,5414;0,8639;0,6714;1,5432;0,6640;2,1672;-0,2761;-0,2700;0,0525;
15,652250;0,5414;0,8639;0,6714;3,1058;1,5076;2,0896;-0,2761;-0,2700;0,0525;
15,655716;0,5414;0,8639;0,6714;3,1058;1,5076;2,0896;0,2150;-0,1393;-0,3445;
15,671901;0,5414;0,8639;0,6714;4,0281;1,9630;1,4048;0,2150;-0,1393;-0,3445;
15,676869;0,7984;0,9948;0,3958;4,0281;1,9630;1,4048;0,2150;-0,1393;-0,3445;
15,692095;0,7984;0,9948;0,3958;3,9868;1,8869;-0,1492;0,2150;-0,1393;-0,3445;
15,711902;0,7984;0,9948;0,3958;3,8119;1,6857;-1,0070;0,2150;-0,1393;-0,3445;
15,718965;0,7984;0,9948;0,3958;3,8119;1,6857;-1,0070;0,1100;-0,4814;-0,9114;
15,732764;0,7984;0,9948;0,3958;3,2394;1,0105;-1,2303;0,1100;-0,4814;-0,9114;
15,741747;0,5365;0,7573;0,2414;3,2394;1,0105;-1,2303;0,1100;-0,4814;-0,9114;
15,752396;0,5365;0,7573;0,2414;2,1282;-0,1066;-1,2778;0,1100;-0,4814;-0,9114;
15,772277;0,5365;0,7573;0,2414;0,6857;-1,3361;-1,4200;0,1100;-0,4814;-0,9114;
15,783358;0,5365;0,7573;0,2414;0,6857;-1,3361;-1,4200;-0,1759;-0,2162;-0,6011;
15,793447;0,5365;0,7573;0,2414;-0,2233;-2,1145;-0,9429;-0,1759;-0,2162;-0,6011;
15,808095;0,1476;0,4867;0,3020;-0,2233;-2,1145;-0,9429;-0,1759;-0,2162;-0,6011;
15,815078;0,1476;0,4867;0,3020;-1,4752;-3,0573;-0,4985;-0,1759;-0,2162;-0,6011;
15,833265;0,1476;0,4867;0,3020;-2,2456;-3,3929;-1,1084;-0,1759;-0,2162;-0,6011;
15,851970;0,1476;0,4867;0,3020;-2,2456;-3,3929;-1,1084;-0,3201;-0,6011;-0,1539;
15,858661;0,1476;0,4867;0,3020;-1,6355;-3,0500;-1,4468;-0,3201;-0,6011;-0,1539;
15,872578;0,1759;0,6157;0,3547;-1,6355;-3,0500;-1,4468;-0,3201;-0,6011;-0,1539;
15,879451;0,1759;0,6157;0,3547;-1,1343;-2,2252;-1,2538;-0,3201;-0,6011;-0,1539;
15,892045;0,1759;0,6157;0,3547;-1,8788;-2,0537;-0,5382;-0,3201;-0,6011;-0,1539;
15,911820;0,1759;0,6157;0,3547;-1,8047;-1,8494;0,5336;-0,3201;-0,6011;-0,1539;
15,914690;0,1759;0,6157;0,3547;-1,8047;-1,8494;0,5336;-0,7746;-0,4423;-0,6854;
15,932067;0,1759;0,6157;0,3547;-0,6033;-0,6373;1,5164;-0,7746;-0,4423;-0,6854;
15,936798;0,1046;0,7261;0,6645;-0,6033;-0,6373;1,5164;-0,7746;-0,4423;-0,6854;
15,951902;0,1046;0,7261;0,6645;-1,5059;-0,5565;1,6729;-0,7746;-0,4423;-0,6854;
15,972256;0,1046;0,7261;0,6645;-3,0681;-0,8667;1,8920;-0,7746;-0,4423;-0,6854;
15,980774;0,1046;0,7261;0,6645;-3,0681;-0,8667;1,8920;-0,8112;-0,0293;-0,1442;
15,992471;0,1046;0,7261;0,6645;-3,4714;0,6211;1,9300;-0,8112;-0,0293;-0,1442;
16,002025;-0,0205;1,7121;1,2411;-3,4714;0,6211;1,9300;-0,8112;-0,0293;-0,1442;
16,016917;-0,0205;1,7121;1,2411;-5,6483;5,4440;3,1276;-0,8112;-0,0293;-0,1442;
16,033476;-0,0205;1,7121;1,2411;3,5701;6,1532;11,9333;-0,8112;-0,0293;-0,1442;
16,044803;-0,0205;1,7121;1,2411;3,5701;6,1532;11,9333;-0,1527;0,9896;-0,4300;
16,054026;-0,0205;1,7121;1,2411;0,4167;-1,4480;-0,3225;-0,1527;0,9896;-0,4300;
16,067515;0,1251;0,7104;0,1397;0,4167;-1,4480;-0,3225;-0,1527;0,9896;-0,4300;
16,071758;0,1251;0,7104;0,1397;-2,5244;-1,4595;-6,4422;-0,1527;0,9896;-0,4300;
16,092267;0,1251;0,7104;0,1397;-1,3190;-1,0393;-3,1788;-0,1527;0,9896;-0,4300;
16,106993;0,1251;0,7104;0,1397;-1,3190;-1,0393;-3,1788;-0,5339;-0,8601;0,0916;
16,112462;0,1251;0,7104;0,1397;-1,4544;-1,0867;-2,0828;-0,5339;-0,8601;0,0916;
16,131706;0,3596;0,8209;0,9479;-1,4544;-1,0867;-2,0828;-0,5339;-0,8601;0,0916;
16,134357;0,3596;0,8209;0,9479;0,2809;-0,2378;3,2584;-0,5339;-0,8601;0,0916;
16,151899;0,3596;0,8209;0,9479;0,9007;0,1814;4,2150;-0,5339;-0,8601;0,0916;
16,172106;0,3596;0,8209;0,9479;1,1766;0,0083;1,8918;-0,5339;-0,8601;0,0916;
16,175321;0,3596;0,8209;0,9479;1,1766;0,0083;1,8918;0,0171;0,1417;-0,0538;
16,192460;0,3596;0,8209;0,9479;0,4784;-0,4420;0,1500;0,0171;0,1417;-0,0538;
16,198203;0,2502;0,7710;0,5394;0,4784;-0,4420;0,1500;0,0171;0,1417;-0,0538;
16,211957;0,2502;0,7710;0,5394;-0,1589;-0,3376;0,0958;0,0171;0,1417;-0,0538;
16,232303;0,2502;0,7710;0,5394;0,1372;-0,0224;1,0769;0,0171;0,1417;-0,0538;
16,239735;0,2502;0,7710;0,5394;0,1372;-0,0224;1,0769;0,1784;0,0782;-0,0403;
16,252435;0,2502;0,7710;0,5394;0,4248;0,3380;0,7411;0,1784;0,0782;-0,0403;
16,262247;0,2941;0,7828;0,4759;0,4248;0,3380;0,7411;0,1784;0,0782;-0,0403;
16,272897;0,2941;0,7828;0,4759;0,2932;0,0063;-0,0919;0,1784;0,0782;-0,0403;
16,293470;0,2941;0,7828;0,4759;0,1280;-0,2243;-0,7021;0,1784;0,0782;-0,0403;
16,302872;0,2941;0,7828;0,4759;0,1280;-0,2243;-0,7021;-0,1503;0,0428;-0,0672;
16,313167;0,2941;0,7828;0,4759;0,2973;-0,2326;-1,2029;-0,1503;0,0428;-0,0672;
16,329760;0,3117;0,7974;0,5736;0,2973;-0,2326;-1,2029;-0,1503;0,0428;-0,0672;
16,338551;0,3117;0,7974;0,5736;0,6357;-0,0494;-0,1230;-0,1503;0,0428;-0,0672;
16,352912;0,3117;0,7974;0,5736;0,3518;-0,1150;0,7821;-0,1503;0,0428;-0,0672;
16,368157;0,3117;0,7974;0,5736;0,3518;-0,1150;0,7821;0,0709;-0,0672;-0,0086;
16,374228;0,3117;0,7974;0,5736;-0,0025;-0,3666;0,6360;0,0709;-0,0672;-0,0086;
16,391954;0,3000;0,8140;0,5385;-0,0025;-0,3666;0,6360;0,0709;-0,0672;-0,0086;
16,394893;0,3000;0,8140;0,5385;0,0837;-0,1152;0,2793;0,0709;-0,0672;-0,0086;
16,411848;0,3000;0,8140;0,5385;0,2762;0,0901;0,2582;0,0709;-0,0672;-0,0086;
16,431936;0,3000;0,8140;0,5385;0,2356;0,1097;0,2197;0,0709;-0,0672;-0,0086;
16,434678;0,3000;0,8140;0,5385;0,2356;0,1097;0,2197;-0,0061;0,0476;-0,0501;
16,452236;0,3000;0,8140;0,5385;0,0431;0,0102;-0,2360;-0,0061;0,0476;-0,0501;
16,456787;0,3127;0,8218;0,4994;0,0431;0,0102;-0,2360;-0,0061;0,0476;-0,0501;
16,473519;0,3127;0,8218;0,4994;0,5256;0,1732;-0,0397;-0,0061;0,0476;-0,0501;
16,492212;0,3127;0,8218;0,4994;0,2990;-0,0719;-0,0253;-0,0061;0,0476;-0,0501;
16,499127;0,3127;0,8218;0,4994;0,2990;-0,0719;-0,0253;0,0244;0,0183;-0,0464;
16,511844;0,3127;0,8218;0,4994;-0,1019;-0,3109;0,2725;0,0244;0,0183;-0,0464;
16,522774;0,2521;0,7720;0,5033;-0,1019;-0,3109;0,2725;0,0244;0,0183;-0,0464;
16,531901;0,2521;0,7720;0,5033;-0,2024;-0,2681;0,1069;0,0244;0,0183;-0,0464;
16,551951;0,2521;0,7720;0,5033;-0,0124;-0,2388;-0,2230;0,0244;0,0183;-0,0464;
16,562087;0,2521;0,7720;0,5033;-0,0124;-0,2388;-0,2230;-0,0244;-0,0098;-0,0281;
16,572197;0,2521;0,7720;0,5033;0,1393;-0,0197;0,2594;-0,0244;-0,0098;-0,0281;
16,586568;0,2590;0,7974;0,5678;0,1393;-0,0197;0,2594;-0,0244;-0,0098;-0,0281;
16,592023;0,2590;0,7974;0,5678;0,0340;0,0076;0,5839;-0,0244;-0,0098;-0,0281;
16,611892;0,2590;0,7974;0,5678;-0,0945;-0,1102;0,3403;-0,0244;-0,0098;-0,0281;
16,627007;0,2590;0,7974;0,5678;-0,0945;-0,1102;0,3403;-0,0073;0,0342;0,0281;
16,631667;0,2590;0,7974;0,5678;-0,1330;-0,2041;-0,1856;-0,0073;0,0342;0,0281;
16,652057;0,3010;0,8091;0,5170;-0,1330;-0,2041;-0,1856;-0,0073;0,0342;0,0281;
16,654755;0,3010;0,8091;0,5170;0,2419;0,0933;-0,0643;-0,0073;0,0342;0,0281;
16,671792;0,3010;0,8091;0,5170;0,3015;0,0575;0,0086;-0,0073;0,0342;0,0281;
16,692104;0,3010;0,8091;0,5170;0,3138;-0,0784;-0,2542;-0,0073;0,0342;0,0281;
16,695267;0,3010;0,8091;0,5170;0,3138;-0,0784;-0,2542;-0,0134;0,0550;-0,0599;
16,712324;0,3010;0,8091;0,5170;0,5199;0,2265;0,3420;-0,0134;0,0550;-0,0599;
16,716921;0,2736;0,7857;0,5170;0,5199;0,2265;0,3420;-0,0134;0,0550;-0,0599;
16,732316;0,2736;0,7857;0,5170;0,2481;-0,0492;0,1067;-0,0134;0,0550;-0,0599;
16,753050;0,2736;0,7857;0,5170;-0,0534;-0,1692;0,1083;-0,0134;0,0550;-0,0599;
16,761396;0,2736;0,7857;0,5170;-0,0534;-0,1692;0,1083;0,0000;-0,0318;0,0110;
16,774483;0,2736;0,7857;0,5170;-0,1554;-0,1028;-0,0529;0,0000;-0,0318;0,0110;
16,787403;0,2648;0,7945;0,5267;-0,1554;-0,1028;-0,0529;0,0000;-0,0318;0,0110;
16,797204;0,2648;0,7945;0,5267;-0,1553;-0,1924;0,0517;0,0000;-0,0318;0,0110;
16,811835;0,2648;0,7945;0,5267;0,1031;0,0729;0,0735;0,0000;-0,0318;0,0110;
16,822265;0,2648;0,7945;0,5267;0,1031;0,0729;0,0735;0,0305;-0,0073;-0,0183;
16,831829;0,2648;0,7945;0,5267;0,4152;0,1381;0,2317;0,0305;-0,0073;-0,0183;
16,846776;0,3029;0,8101;0,4925;0,4152;0,1381;0,2317;0,0305;-0,0073;-0,0183;
16,852499;0,3029;0,8101;0,4925;0,3896;0,1637;-0,0291;0,0305;-0,0073;-0,0183;
16,872089;0,3029;0,8101;0,4925;0,2496;0,0475;-0,2744;0,0305;-0,0073;-0,0183;
16,886948;0,3029;0,8101;0,4925;0,2496;0,0475;-0,2744;-0,0440;0,0024;-0,0562;
16,892289;0,3029;0,8101;0,4925;0,1559;0,0187;-0,0670;-0,0440;0,0024;-0,0562;
16,912082;0,2609;0,7896;0,5277;0,1559;0,0187;-0,0670;-0,0440;0,0024;-0,0562;
16,915179;0,2609;0,7896;0,5277;-0,1440;-0,1499;0,1294;-0,0440;0,0024;-0,0562;
16,932491;0,2609;0,7896;0,5277;-0,0877;-0,1039;0,0765;-0,0440;0,0024;-0,0562;
16,952628;0,2609;0,7896;0,5277;-0,0967;0,0018;0,2847;-0,0440;0,0024;-0,0562;
16,958366;0,2609;0,7896;0,5277;-0,0967;0,0018;0,2847;0,0354;0,0159;0,0049;
16,973323;0,2609;0,7896;0,5277;-0,1458;-0,0800;0,3488;0,0354;0,0159;0,0049;
16,984545;0,2746;0,7955;0,5003;-0,1458;-0,0800;0,3488;0,0354;0,0159;0,0049;
16,995147;0,2746;0,7955;0,5003;-0,0395;-0,0560;-0,1616;0,0354;0,0159;0,0049;
17,013251;0,2746;0,7955;0,5003;0,3116;0,1197;-0,1204;0,0354;0,0159;0,0049;
17,024688;0,2746;0,7955;0,5003;0,3116;0,1197;-0,1204;0,0086;0,0086;-0,0208;
17,033642;0,2746;0,7955;0,5003;0,2706;0,1126;0,0971;0,0086;0,0086;-0,0208;
17,041571;0,2775;0,7974;0,5111;0,2706;0,1126;0,0971;0,0086;0,0086;-0,0208;
17,052395;0,2775;0,7974;0,5111;0,1293;-0,0350;0,0657;0,0086;0,0086;-0,0208;
17,071881;0,2775;0,7974;0,5111;-0,0257;-0,0866;-0,2059;0,0086;0,0086;-0,0208;
17,082862;0,2775;0,7974;0,5111;-0,0257;-0,0866;-0,2059;-0,0183;-0,0183;0,0073;
17,092069;0,2775;0,7974;0,5111;0,0529;-0,0634;0,0826;-0,0183;-0,0183;0,0073;
17,106913;0,2814;0,8052;0,5521;0,0529;-0,0634;0,0826;-0,0183;-0,0183;0,0073;
17,111740;0,2814;0,8052;0,5521;-0,0246;0,0103;0,4907;-0,0183;-0,0183;0,0073;
17,132055;0,2814;0,8052;0,5521;0,1220;0,0639;0,1263;-0,0183;-0,0183;0,0073;
17,147101;0,2814;0,8052;0,5521;0,1220;0,0639;0,1263;-0,0024;0,0244;-0,0208;
17,153619;0,2814;0,8052;0,5521;0,0569;0,0134;-0,0988;-0,0024;0,0244;-0,0208;
17,172144;0,2805;0,8131;0,4984;0,0569;0,0134;-0,0988;-0,0024;0,0244;-0,0208;
17,176166;0,2805;0,8131;0,4984;0,1295;0,0592;0,0316;-0,0024;0,0244;-0,0208;
17,193148;0,2805;0,8131;0,4984;0,1150;0,1188;-0,2069;-0,0024;0,0244;-0,0208;
17,213060;0,2805;0,8131;0,4984;0,2356;0,0112;0,0461;-0,0024;0,0244;-0,0208;
17,219795;0,2805;0,8131;0,4984;0,2356;0,0112;0,0461;0,0305;0,0086;-0,0098;
17,236156;0,2805;0,8131;0,4984;0,0062;-0,0074;0,3795;0,0305;0,0086;-0,0098;
17,246655;0,2609;0,8043;0,5238;0,0062;-0,0074;0,3795;0,0305;0,0086;-0,0098;
17,256387;0,2609;0,8043;0,5238;-0,0257;0,0379;0,1165;0,0305;0,0086;-0,0098;
17,272910;0,2609;0,8043;0,5238;-0,0334;-0,0276;-0,1683;0,0305;0,0086;-0,0098;
17,283755;0,2609;0,8043;0,5238;-0,0334;-0,0276;-0,1683;-0,0012;-0,0550;0,0049;
17,293200;0,2609;0,8043;0,5238;-0,0913;-0,1157;-0,1639;-0,0012;-0,0550;0,0049;
17,304768;0,2756;0,8091;0,5697;-0,0913;-0,1157;-0,1639;-0,0012;-0,0550;0,0049;
17,317798;0,2756;0,8091;0,5697;0,1224;0,0737;0,4250;-0,0012;-0,0550;0,0049;
17,336802;0,2756;0,8091;0,5697;0,0254;-0,0107;0,3259;-0,0012;-0,0550;0,0049;
17,348349;0,2756;0,8091;0,5697;0,0254;-0,0107;0,3259;-0,0183;0,0330;0,0244;
17,351976;0,2756;0,8091;0,5697;-0,0897;-0,0875;-0,2218;-0,0183;0,0330;0,0244;
17,366842;0,2873;0,8033;0,5150;-0,0897;-0,0875;-0,2218;-0,0183;0,0330;0,0244;
17,371812;0,2873;0,8033;0,5150;0,0333;-0,0143;-0,4030;-0,0183;0,0330;0,0244;
17,392079;0,2873;0,8033;0,5150;0,2031;0,0907;0,0654;-0,0183;0,0330;0,0244;
17,407166;0,2873;0,8033;0,5150;0,2031;0,0907;0,0654;0,0257;0,0660;-0,0415;
17,412226;0,2873;0,8033;0,5150;0,4358;0,2535;0,4501;0,0257;0,0660;-0,0415;
17,432244;0,2502;0,7847;0,5042;0,4358;0,2535;0,4501;0,0257;0,0660;-0,0415;
17,435897;0,2502;0,7847;0,5042;0,1389;0,0213;0,1769;0,0257;0,0660;-0,0415;
17,452144;0,2502;0,7847;0,5042;-0,1751;-0,1485;-0,1710;0,0257;0,0660;-0,0415;
17,472235;0,2502;0,7847;0,5042;-0,0087;-0,0667;-0,2148;0,0257;0,0660;-0,0415;
17,477623;0,2502;0,7847;0,5042;-0,0087;-0,0667;-0,2148;-0,0171;-0,0147;-0,0159;
17,492461;0,2502;0,7847;0,5042;0,1188;0,1198;0,0494;-0,0171;-0,0147;-0,0159;
17,497034;0,2599;0,7945;0,5316;0,1188;0,1198;0,0494;-0,0171;-0,0147;-0,0159;
17,514827;0,2599;0,7945;0,5316;-0,0115;-0,0205;0,1141;-0,0171;-0,0147;-0,0159;
17,533431;0,2599;0,7945;0,5316;0,0456;-0,0343;0,1701;-0,0171;-0,0147;-0,0159;
17,542559;0,2599;0,7945;0,5316;0,0456;-0,0343;0,1701;0,0049;-0,0122;0,0061;
17,553533;0,2599;0,7945;0,5316;0,0491;0,0121;-0,0580;0,0049;-0,0122;0,0061;
17,563268;0,2658;0,8003;0,5101;0,0491;0,0121;-0,0580;0,0049;-0,0122;0,0061;
17,573030;0,2658;0,8003;0,5101;0,0458;0,0096;-0,0034;0,0049;-0,0122;0,0061;
17,597580;0,2658;0,8003;0,5101;-0,0703;-0,0409;-0,1293;0,0049;-0,0122;0,0061;
17,606093;0,2658;0,8003;0,5101;-0,0703;-0,0409;-0,1293;-0,0147;-0,0086;0,0379;
17,614080;0,2658;0,8003;0,5101;-0,1989;-0,0928;-0,0707;-0,0147;-0,0086;0,0379;
17,629783;0,2629;0,8023;0,5766;-0,1989;-0,0928;-0,0707;-0,0147;-0,0086;0,0379;
17,632083;0,2629;0,8023;0,5766;-0,0418;-0,0141;0,6733;-0,0147;-0,0086;0,0379;
17,652149;0,2629;0,8023;0,5766;-0,0442;0,0388;0,4630;-0,0147;-0,0086;0,0379;
17,667153;0,2629;0,8023;0,5766;-0,0442;0,0388;0,4630;0,0305;0,1063;0,0318;
17,671789;0,2629;0,8023;0,5766;0,0409;0,0385;0,1414;0,0305;0,1063;0,0318;
17,691905;0,2375;0,7964;0,5619;0,0409;0,0385;0,1414;0,0305;0,1063;0,0318;
17,693873;0,2375;0,7964;0,5619;-0,0510;0,0688;0,0389;0,0305;0,1063;0,0318;
17,711829;0,2375;0,7964;0,5619;-0,3076;-0,0258;0,3775;0,0305;0,1063;0,0318;
17,732079;0,2375;0,7964;0,5619;0,0735;0,1238;-0,1156;0,0305;0,1063;0,0318;
17,735656;0,2375;0,7964;0,5619;0,0735;0,1238;-0,1156;0,0904;-0,0318;-0,0061;
17,752426;0,2375;0,7964;0,5619;0,5132;0,3781;-0,1858;0,0904;-0,0318;-0,0061;
17,757584;0,3352;0,8815;0,6567;0,5132;0,3781;-0,1858;0,0904;-0,0318;-0,0061;
17,772326;0,3352;0,8815;0,6567;0,6697;0,5765;1,1601;0,0904;-0,0318;-0,0061;
17,795472;0,3352;0,8815;0,6567;0,2982;0,7714;0,9166;0,0904;-0,0318;-0,0061;
17,806643;0,3352;0,8815;0,6567;0,2982;0,7714;0,9166;0,2089;0,2944;-0,2468;
17,816523;0,3352;0,8815;0,6567;0,0194;1,7314;0,4703;0,2089;0,2944;-0,2468;
17,825834;0,2033;1,2938;0,6762;0,0194;1,7314;0,4703;0,2089;0,2944;-0,2468;
17,834023;0,2033;1,2938;0,6762;-0,5383;3,1859;0,9232;0,2089;0,2944;-0,2468;
17,852209;0,2033;1,2938;0,6762;0,0439;6,3215;2,3935;0,2089;0,2944;-0,2468;
17,861965;0,2033;1,2938;0,6762;0,0439;6,3215;2,3935;0,4606;0,0538;-0,8125;
17,873991;0,2033;1,2938;0,6762;-0,0872;7,4726;4,7307;0,4606;0,0538;-0,8125;
17,886636;-0,1554;1,4453;1,2792;-0,0872;7,4726;4,7307;0,4606;0,0538;-0,8125;
17,891995;-0,1554;1,4453;1,2792;-1,7231;6,9931;7,3313;0,4606;0,0538;-0,8125;
17,912223;-0,1554;1,4453;1,2792;-4,0216;5,6233;7,5672;0,4606;0,0538;-0,8125;
17,927176;-0,1554;1,4453;1,2792;-4,0216;5,6233;7,5672;2,2089;0,1393;0,0110;
17,932143;-0,1554;1,4453;1,2792;-4,8812;4,3687;7,0818;2,2089;0,1393;0,0110;
17,952304;0,0303;1,1815;0,7681;-4,8812;4,3687;7,0818;2,2089;0,1393;0,0110;
17,958375;0,0303;1,1815;0,7681;-2,8997;3,7320;5,4349;2,2089;0,1393;0,0110;
17,977076;0,0303;1,1815;0,7681;-1,1339;2,7901;3,6218;2,2089;0,1393;0,0110;
17,993581;0,0303;1,1815;0,7681;0,6791;2,4512;2,0452;2,2089;0,1393;0,0110;
18,004343;0,0303;1,1815;0,7681;0,6791;2,4512;2,0452;1,8583;1,0519;-0,4044;
18,013723;0,0303;1,1815;0,7681;0,3927;2,5585;0,5060;1,8583;1,0519;-0,4044;
18,024761;0,2893;1,0466;0,4974;0,3927;2,5585;0,5060;1,8583;1,0519;-0,4044;
18,031824;0,2893;1,0466;0,4974;1,4738;1,3162;1,6557;1,8583;1,0519;-0,4044;
18,051945;0,2893;1,0466;0,4974;2,3474;0,7597;1,6667;1,8583;1,0519;-0,4044;
18,058957;0,2893;1,0466;0,4974;2,3474;0,7597;1,6667;1,6090;0,8100;-0,8589;
18,072271;0,2893;1,0466;0,4974;3,1603;-0,9248;0,4214;1,6090;0,8100;-0,8589;
18,081904;0,3938;0,4329;0,3928;3,1603;-0,9248;0,4214;1,6090;0,8100;-0,8589;
18,092043;0,3938;0,4329;0,3928;3,1642;-3,8661;1,8780;1,6090;0,8100;-0,8589;
18,111891;0,3938;0,4329;0,3928;2,8375;-6,1144;0,8435;1,6090;0,8100;-0,8589;
18,122134;0,3938;0,4329;0,3928;2,8375;-6,1144;0,8435;1,5992;0,7013;-0,3421;
18,131820;0,3938;0,4329;0,3928;3,1767;-6,9527;-1,1885;1,5992;0,7013;-0,3421;
18,146771;0,4749;0,1612;-0,2775;3,1767;-6,9527;-1,1885;1,5992;0,7013;-0,3421;
18,153782;0,4749;0,1612;-0,2775;2,9628;-7,9279;-2,2739;1,5992;0,7013;-0,3421;
18,171887;0,4749;0,1612;-0,2775;3,2991;-7,9216;-4,3404;1,5992;0,7013;-0,3421;
18,186905;0,4749;0,1612;-0,2775;3,2991;-7,9216;-4,3404;0,4667;0,2932;-0,0513;
18,192162;0,4749;0,1612;-0,2775;2,5735;-7,5465;-4,3688;0,4667;0,2932;-0,0513;
18,212069;0,4827;0,3293;-0,3293;2,5735;-7,5465;-4,3688;0,4667;0,2932;-0,0513;
18,214874;0,4827;0,3293;-0,3293;2,0033;-7,3724;-4,0572;0,4667;0,2932;-0,0513;
18,232043;0,4827;0,3293;-0,3293;2,4777;-6,2230;-3,0934;0,4667;0,2932;-0,0513;
18,252079;0,4827;0,3293;-0,3293;3,4140;-4,7908;-2,3761;0,4667;0,2932;-0,0513;
18,255146;0,4827;0,3293;-0,3293;3,4140;-4,7908;-2,3761;0,3555;-0,4423;0,1906;
18,271966;0,4827;0,3293;-0,3293;2,6880;-3,6295;-2,4487;0,3555;-0,4423;0,1906;
18,276674;0,6147;0,7573;-0,3909;2,6880;-3,6295;-2,4487;0,3555;-0,4423;0,1906;
18,292235;0,6147;0,7573;-0,3909;3,2365;-2,2713;-3,4885;0,3555;-0,4423;0,1906;
18,312473;0,6147;0,7573;-0,3909;3,3917;-0,5777;-1,9211;0,3555;-0,4423;0,1906;
18,320631;0,6147;0,7573;-0,3909;3,3917;-0,5777;-1,9211;-0,2321;-1,0055;-0,0977;
18,332281;0,6147;0,7573;-0,3909;3,5972;0,7284;-0,7618;-0,2321;-1,0055;-0,0977;
18,342458;0,6499;1,1170;0,0674;3,5972;0,7284;-0,7618;-0,2321;-1,0055;-0,0977;
18,356509;0,6499;1,1170;0,0674;3,2211;1,5019;0,7234;-0,2321;-1,0055;-0,0977;
18,375243;0,6499;1,1170;0,0674;3,6567;1,8340;2,5965;-0,2321;-1,0055;-0,0977;
18,385619;0,6499;1,1170;0,0674;3,6567;1,8340;2,5965;0,8381;-1,7507;-0,0305;
18,396329;0,6499;1,1170;0,0674;3,2422;1,6418;2,0676;0,8381;-1,7507;-0,0305;
18,407916;0,5697;1,2147;-0,3049;3,2422;1,6418;2,0676;0,8381;-1,7507;-0,0305;
18,411695;0,5697;1,2147;-0,3049;3,1068;2,2481;-0,3650;0,8381;-1,7507;-0,0305;
18,431892;0,5697;1,2147;-0,3049;2,3520;2,6475;-1,9182;0,8381;-1,7507;-0,0305;
18,446799;0,5697;1,2147;-0,3049;2,3520;2,6475;-1,9182;-0,3348;-1,8839;-1,0079;
18,452046;0,5697;1,2147;-0,3049;0,7242;1,1357;-0,2470;-0,3348;-1,8839;-1,0079;
18,471734;-0,1368;0,8541;0,4280;0,7242;1,1357;-0,2470;-0,3348;-1,8839;-1,0079;
18,474289;-0,1368;0,8541;0,4280;-1,2049;-0,3217;4,3738;-0,3348;-1,8839;-1,0079;
18,491858;-0,1368;0,8541;0,4280;-3,5244;-1,0138;5,4538;-0,3348;-1,8839;-1,0079;
18,512007;-0,1368;0,8541;0,4280;-4,7694;-1,0842;2,4092;-0,3348;-1,8839;-1,0079;
18,516803;-0,1368;0,8541;0,4280;-4,7694;-1,0842;2,4092;0,0550;-1,8021;-0,5461;
18,532479;-0,1368;0,8541;0,4280;-5,8829;-0,6282;0,1973;0,0550;-1,8021;-0,5461;
18,537483;-0,5502;0,9166;0,1710;-5,8829;-0,6282;0,1973;0,0550;-1,8021;-0,5461;
18,552395;-0,5502;0,9166;0,1710;-5,9917;-0,7539;2,2564;0,0550;-1,8021;-0,5461;
18,573221;-0,5502;0,9166;0,1710;-7,0530;-0,6456;3,0668;0,0550;-1,8021;-0,5461;
18,581452;-0,5502;0,9166;0,1710;-7,0530;-0,6456;3,0668;-0,4142;-0,9542;-0,4557;
18,593553;-0,5502;0,9166;0,1710;-7,5839;-1,1988;3,2654;-0,4142;-0,9542;-0,4557;
18,604848;-0,6997;0,9020;0,3753;-7,5839;-1,1988;3,2654;-0,4142;-0,9542;-0,4557;
18,614721;-0,6997;0,9020;0,3753;-7,2531;-1,0307;4,1339;-0,4142;-0,9542;-0,4557;
18,631856;-0,6997;0,9020;0,3753;-6,0823;-0,8936;3,7006;-0,4142;-0,9542;-0,4557;
18,641818;-0,6997;0,9020;0,3753;-6,0823;-0,8936;3,7006;-0,2297;-0,0977;-0,1246;
18,652421;-0,6997;0,9020;0,3753;-6,7037;-1,9299;2,9797;-0,2297;-0,0977;-0,1246;
18,666956;-0,5922;0,6977;0,2824;-6,7037;-1,9299;2,9797;-0,2297;-0,0977;-0,1246;
18,671776;-0,5922;0,6977;0,2824;-5,9216;-2,6135;3,2922;-0,2297;-0,0977;-0,1246;
18,692025;-0,5922;0,6977;0,2824;-4,3900;-2,8999;2,5029;-0,2297;-0,0977;-0,1246;
18,707193;-0,5922;0,6977;0,2824;-4,3900;-2,8999;2,5029;-0,0428;0,2236;0,2663;
18,713732;-0,5922;0,6977;0,2824;-3,1899;-3,3842;0,3986;-0,0428;0,2236;0,2663;
18,731699;-0,3049;0,5199;-0,1153;-3,1899;-3,3842;0,3986;-0,0428;0,2236;0,2663;
18,734749;-0,3049;0,5199;-0,1153;-2,3365;-3,9101;-0,3869;-0,0428;0,2236;0,2663;
18,752051;-0,3049;0,5199;-0,1153;-1,5089;-4,5086;-0,8579;-0,0428;0,2236;0,2663;
18,771967;-0,3049;0,5199;-0,1153;-1,9820;-5,2955;-0,8800;-0,0428;0,2236;0,2663;
18,775067;-0,3049;0,5199;-0,1153;-1,9820;-5,2955;-0,8800;-0,7355;0,4789;0,5449;
18,792061;-0,3049;0,5199;-0,1153;-2,1583;-6,1422;-0,6322;-0,7355;0,4789;0,5449;
18,797831;-0,3968;0,2912;0,0000;-2,1583;-6,1422;-0,6322;-0,7355;0,4789;0,5449;
18,813215;-0,3968;0,2912;0,0000;-2,4914;-6,6592;-0,0613;-0,7355;0,4789;0,5449;
18,832631;-0,3968;0,2912;0,0000;-1,4724;-6,7162;0,0166;-0,7355;0,4789;0,5449;
18,839871;-0,3968;0,2912;0,0000;-1,4724;-6,7162;0,0166;-2,0562;1,7972;1,3329;
18,852486;-0,3968;0,2912;0,0000;-0,8380;-6,3033;2,4157;-2,0562;1,7972;1,3329;
18,863963;-0,0977;0,4622;0,4945;-0,8380;-6,3033;2,4157;-2,0562;1,7972;1,3329;
18,873033;-0,0977;0,4622;0,4945;0,1198;-5,4359;3,2193;-2,0562;1,7972;1,3329;
18,893208;-0,0977;0,4622;0,4945;0,2016;-4,6390;3,3650;-2,0562;1,7972;1,3329;
18,903371;-0,0977;0,4622;0,4945;0,2016;-4,6390;3,3650;-1,7361;1,9633;1,7593;
18,915505;-0,0977;0,4622;0,4945;-0,0405;-3,8610;2,7929;-1,7361;1,9633;1,7593;
18,933558;0,1339;0,9440;0,5170;-0,0405;-3,8610;2,7929;-1,7361;1,9633;1,7593;
18,941586;0,1339;0,9440;0,5170;0,6047;-1,9158;2,7823;-1,7361;1,9633;1,7593;
18,952324;0,1339;0,9440;0,5170;2,0727;0,4654;1,8691;-1,7361;1,9633;1,7593;
18,967186;0,1339;0,9440;0,5170;2,0727;0,4654;1,8691;-1,5809;1,3525;1,7837;
18,971761;0,1339;0,9440;0,5170;3,5727;1,9965;1,2850;-1,5809;1,3525;1,7837;
18,991779;0,7349;1,4707;0,5961;3,5727;1,9965;1,2850;-1,5809;1,3525;1,7837;
18,994847;0,7349;1,4707;0,5961;4,8960;3,6148;2,4610;-1,5809;1,3525;1,7837;
19,011999;0,7349;1,4707;0,5961;6,5641;5,4223;2,1934;-1,5809;1,3525;1,7837;
19,031966;0,7349;1,4707;0,5961;7,8230;6,1795;0,1339;-1,5809;1,3525;1,7837;
19,034733;0,7349;1,4707;0,5961;7,8230;6,1795;0,1339;-1,0507;0,6817;0,9151;
19,052533;0,7349;1,4707;0,5961;9,0604;6,6087;0,7277;-1,0507;0,6817;0,9151;
19,058017;0,9557;1,5030;0,5512;9,0604;6,6087;0,7277;-1,0507;0,6817;0,9151;
19,072567;0,9557;1,5030;0,5512;8,2826;6,3200;1,2760;-1,0507;0,6817;0,9151;
19,094297;0,9557;1,5030;0,5512;6,1166;5,6604;1,7008;-1,0507;0,6817;0,9151;
19,100653;0,9557;1,5030;0,5512;6,1166;5,6604;1,7008;-0,2932;-0,1906;0,4887;
19,112172;0,9557;1,5030;0,5512;5,3689;5,9741;4,3892;-0,2932;-0,1906;0,4887;
19,122005;0,6518;1,2626;0,8619;5,3689;5,9741;4,3892;-0,2932;-0,1906;0,4887;
19,132268;0,6518;1,2626;0,8619;4,6093;4,5969;5,2407;-0,2932;-0,1906;0,4887;
19,153170;0,6518;1,2626;0,8619;4,3437;3,1910;2,8037;-0,2932;-0,1906;0,4887;
19,162587;0,6518;1,2626;0,8619;4,3437;3,1910;2,8037;0,2480;-0,3189;0,1454;
19,173110;0,6518;1,2626;0,8619;3,3696;1,8692;-0,1907;0,2480;-0,3189;0,1454;
19,187855;0,5580;0,9352;0,3303;3,3696;1,8692;-0,1907;0,2480;-0,3189;0,1454;
19,192797;0,5580;0,9352;0,3303;2,5552;0,8199;-0,7646;0,2480;-0,3189;0,1454;
19,214359;0,5580;0,9352;0,3303;3,0871;0,6426;-0,5980;0,2480;-0,3189;0,1454;
19,228521;0,5580;0,9352;0,3303;3,0871;0,6426;-0,5980;0,1100;-0,3653;-0,3763;
19,235564;0,5580;0,9352;0,3303;3,2213;0,5846;-0,5504;0,1100;-0,3653;-0,3763;
19,253250;0,5199;0,8727;0,3244;3,2213;0,5846;-0,5504;0,1100;-0,3653;-0,3763;
19,261871;0,5199;0,8727;0,3244;3,2697;0,4024;0,1315;0,1100;-0,3653;-0,3763;
19,272087;0,5199;0,8727;0,3244;2,2584;-0,0072;-0,4422;0,1100;-0,3653;-0,3763;
19,292107;0,5199;0,8727;0,3244;1,4516;-0,8010;-1,0123;0,1100;-0,3653;-0,3763;
19,296070;0,5199;0,8727;0,3244;1,4516;-0,8010;-1,0123;-0,1197;-0,2346;-0,7648;
19,311959;0,5199;0,8727;0,3244;0,6572;-1,4643;-1,1534;-0,1197;-0,2346;-0,7648;
19,316659;0,1700;0,6293;0,2081;0,6572;-1,4643;-1,1534;-0,1197;-0,2346;-0,7648;
19,331960;0,1700;0,6293;0,2081;-0,5511;-2,2654;-1,4520;-0,1197;-0,2346;-0,7648;
19,352303;0,1700;0,6293;0,2081;-1,5595;-3,0749;-1,7607;-0,1197;-0,2346;-0,7648;
19,358955;0,1700;0,6293;0,2081;-1,5595;-3,0749;-1,7607;-0,6060;0,0660;-0,3775;
19,372693;0,1700;0,6293;0,2081;-1,3259;-3,2142;-1,6299;-0,6060;0,0660;-0,3775;
19,381767;0,1055;0,6029;0,3098;-1,3259;-3,2142;-1,6299;-0,6060;0,0660;-0,3775;
19,391943;0,1055;0,6029;0,3098;-0,6308;-2,8142;0,1037;-0,6060;0,0660;-0,3775;
19,412106;0,1055;0,6029;0,3098;-0,9836;-3,0154;-2,5432;-0,6060;0,0660;-0,3775;
19,422174;0,1055;0,6029;0,3098;-0,9836;-3,0154;-2,5432;-1,5504;-0,0012;-0,5669;
19,432155;0,1055;0,6029;0,3098;0,2754;-1,6052;-2,7758;-1,5504;-0,0012;-0,5669;
19,446915;0,0596;0,7261;0,7241;0,2754;-1,6052;-2,7758;-1,5504;-0,0012;-0,5669;
19,452032;0,0596;0,7261;0,7241;-0,9357;-1,5396;0,0697;-1,5504;-0,0012;-0,5669;
